isFall,AccX(g)1,ΔAccX1,AccY(g)1,ΔAccY1,AccZ(g)1,ΔAccZ1,GyrX(d/s)1,ΔGyrX1,GyrY(d/s)1,ΔGyrY1,GyrZ(d/s)1,ΔGyrZ1,AccX(g)2,ΔAccX2,AccY(g)2,ΔAccY2,AccZ(g)2,ΔAccZ2,GyrX(d/s)2,ΔGyrX2,GyrY(d/s)2,ΔGyrY2,GyrZ(d/s)2,ΔGyrZ2,AccX(g)3,ΔAccX3,AccY(g)3,ΔAccY3,AccZ(g)3,ΔAccZ3,GyrX(d/s)3,ΔGyrX3,GyrY(d/s)3,ΔGyrY3,GyrZ(d/s)3,ΔGyrZ3,AccX(g)4,ΔAccX4,AccY(g)4,ΔAccY4,AccZ(g)4,ΔAccZ4,GyrX(d/s)4,ΔGyrX4,GyrY(d/s)4,ΔGyrY4,GyrZ(d/s)4,ΔGyrZ4,AccX(g)5,ΔAccX5,AccY(g)5,ΔAccY5,AccZ(g)5,ΔAccZ5,GyrX(d/s)5,ΔGyrX5,GyrY(d/s)5,ΔGyrY5,GyrZ(d/s)5,ΔGyrZ5
1,0.92,3.0,31.5,78.0,31.8,32.0,3924.88,16.0,24.57,31.0,33.78,-3.0,0.97,11.0,31.6,18.0,31.83,7.0,3927.8,48.0,23.78,0.0,54.51,12.0,0.96,-11.0,31.63,5.0,31.94,32.0,3927.8,-32.0,37.62,4.0,79.33,16.0,0.99,-4.0,31.7,3.0,0.09,-29.0,3928.78,-64.0,51.52,2.0,119.21,19.0,0.74,-20.0,31.74,-3.0,0.24,13.0,3925.85,32.0,64.63,14.0,189.33,28.0
1,31.9,1.0,31.14,-4.0,0.18,-1.0,3895.61,16.0,3950.18,-3.0,3979.94,-6.0,31.92,3.0,31.0,-16.0,0.1,-14.0,3896.59,0.0,3943.11,-7.0,3969.88,7.0,31.95,5.0,31.07,7.0,0.1,-3.0,3895.61,0.0,3977.68,7.0,3975.55,-1.0,0.08,-14.0,30.9,5.0,0.0,29.0,3894.63,32.0,3954.39,29.0,3981.95,1.0,0.05,12.0,31.08,4.0,0.05,4.0,3894.63,16.0,3994.09,-4.0,3989.27,-3.0
0,31.56,5.0,31.19,-9.0,31.81,-11.0,3901.46,16.0,70.91,19.0,191.83,-30.0,31.65,11.0,31.22,15.0,31.66,14.0,3901.46,48.0,2.13,-30.0,91.4,-11.0,31.81,7.0,30.97,6.0,31.64,2.0,3902.44,0.0,3916.52,75.0,47.68,-15.0,31.83,-1.0,31.15,-23.0,31.63,1.0,3902.44,0.0,3986.1,-19.0,3977.38,-28.0,31.96,5.0,31.16,8.0,31.67,1.0,3902.44,-16.0,5.49,1.0,3933.66,-3.0
1,31.49,-12.0,31.54,-2.0,0.01,-20.0,3901.46,-32.0,3821.83,12.0,9.57,-14.0,30.86,-9.0,31.44,-1.0,31.97,6.0,3900.49,-32.0,3838.78,5.0,3920.0,-29.0,30.17,18.0,31.6,-30.0,31.33,-31.0,3900.49,-16.0,3515.24,-119.0,3922.68,-10.0,31.02,4.0,31.46,-13.0,31.58,27.0,3897.56,48.0,98.84,109.0,3944.7,34.0,31.23,-22.0,0.02,-20.0,31.78,8.0,3898.54,0.0,3990.43,-145.0,3985.55,-1.0
0,31.99,-6.0,31.08,-3.0,31.54,17.0,3900.49,80.0,3.54,0.0,3993.48,3.0,0.01,-5.0,31.0,-16.0,31.53,0.0,3904.39,-16.0,8.11,0.0,3.9,3.0,0.04,-4.0,30.98,-14.0,31.58,16.0,3903.41,0.0,23.54,15.0,13.48,2.0,0.15,-6.0,30.98,-18.0,31.59,4.0,3903.41,0.0,8.9,5.0,28.23,8.0,0.21,6.0,30.96,20.0,31.61,16.0,3901.46,48.0,13.96,-10.0,48.29,3.0
1,0.99,-3.0,31.74,0.0,31.89,-16.0,3915.12,0.0,3990.79,-2.0,3991.77,-2.0,1.02,4.0,31.74,10.0,31.87,-1.0,3911.22,32.0,3983.66,-3.0,3.29,0.0,0.96,1.0,31.72,-5.0,31.83,-3.0,3913.17,-32.0,3975.98,4.0,3995.91,-5.0,0.97,5.0,31.68,-19.0,31.81,-4.0,3913.17,0.0,3992.38,8.0,3983.23,-5.0,1.0,1.0,31.73,-1.0,31.82,10.0,3913.17,16.0,4.09,0.0,3979.76,2.0
0,31.94,4.0,31.05,8.0,31.85,-15.0,3905.37,-32.0,42.44,3.0,3995.24,1.0,0.01,6.0,31.03,-23.0,31.96,4.0,3903.41,16.0,3990.79,29.0,3992.38,-2.0,31.97,8.0,30.95,-17.0,31.93,45.0,3904.39,-32.0,3988.54,13.0,3985.37,6.0,31.91,19.0,30.95,57.0,31.91,-29.0,3904.39,16.0,16.34,-10.0,3988.72,6.0,31.97,16.0,31.02,0.0,31.89,28.0,3901.46,64.0,3961.71,18.0,3977.44,-11.0
0,31.87,-11.0,31.06,-23.0,31.77,18.0,3902.44,-16.0,53.78,0.0,21.65,9.0,31.75,1.0,30.95,24.0,31.91,-2.0,3901.46,0.0,13.17,22.0,3970.73,-21.0,31.8,8.0,31.24,-12.0,31.88,-34.0,3901.46,32.0,9.51,-5.0,3909.57,-6.0,31.78,-26.0,31.24,-30.0,31.8,-10.0,3901.46,16.0,3811.16,-112.0,3927.2,-1.0,31.71,0.0,30.93,31.0,31.76,5.0,3902.44,-32.0,3979.7,75.0,3918.29,3.0
1,31.97,-14.0,31.23,3.0,0.41,-4.0,3903.41,-16.0,3995.12,-4.0,3956.71,-3.0,31.9,-4.0,30.93,9.0,0.55,-16.0,3902.44,0.0,3991.59,8.0,3952.2,2.0,31.96,5.0,31.29,-16.0,0.42,-11.0,3900.49,64.0,3984.45,-4.0,3969.51,15.0,31.98,13.0,31.16,-6.0,0.44,6.0,3902.44,-16.0,3987.44,4.0,3.29,6.0,31.92,1.0,31.21,0.0,0.45,11.0,3903.41,-32.0,11.1,-5.0,24.57,-3.0
0,0.28,23.0,31.27,43.0,31.55,24.0,3905.37,16.0,102.8,-41.0,3944.82,-16.0,0.6,9.0,31.7,-44.0,30.95,-31.0,3906.34,-32.0,3865.12,-23.0,46.28,32.0,0.68,-7.0,30.94,7.0,31.41,23.0,3904.39,32.0,3915.73,16.0,78.29,-1.0,0.54,1.0,30.74,-14.0,31.76,-16.0,3906.34,-48.0,3976.77,69.0,72.2,-18.0,0.23,-15.0,31.05,22.0,31.7,12.0,3903.41,32.0,375.24,21.0,3926.46,-12.0
0,31.74,-17.0,31.33,29.0,0.27,26.0,3903.41,16.0,31.34,-70.0,8.9,-8.0,31.75,21.0,31.17,12.0,0.33,-20.0,3902.44,0.0,5.67,7.0,3987.44,7.0,31.78,-5.0,31.17,7.0,0.35,17.0,3906.34,-32.0,32.44,-10.0,10.43,0.0,31.79,-16.0,31.23,4.0,0.41,-3.0,3902.44,16.0,40.73,-10.0,3995.24,-6.0,31.72,-4.0,31.32,14.0,0.45,-18.0,3905.37,-32.0,81.95,-48.0,3992.93,-2.0
0,0.06,7.0,31.07,7.0,0.13,-15.0,3903.41,-32.0,3988.05,0.0,13.05,3.0,0.13,-9.0,31.09,-4.0,0.19,-7.0,3905.37,0.0,3991.16,-1.0,0.55,-1.0,0.23,24.0,31.09,9.0,0.23,-19.0,3901.46,0.0,14.82,4.0,3983.35,4.0,0.29,18.0,31.12,15.0,0.26,-35.0,3904.39,0.0,21.22,-11.0,3958.78,-7.0,0.42,4.0,31.12,-1.0,0.25,32.0,3902.44,0.0,3983.84,1.0,3944.39,-8.0
1,0.9,-5.0,31.48,45.0,0.02,17.0,3903.41,0.0,3985.85,28.0,3988.11,-1.0,0.88,9.0,31.44,-6.0,0.03,-14.0,3903.41,16.0,4.02,10.0,1.52,1.0,0.85,-47.0,31.44,47.0,0.04,59.0,3902.44,32.0,9.76,-32.0,3988.78,-104.0,0.79,3.0,31.61,-8.0,31.98,-65502.0,3902.44,0.0,2.99,-43.0,2.2,2.0,0.91,-21.0,31.5,-23.0,0.03,0.0,3902.44,16.0,1.22,-3.0,3995.91,-65533.0
0,31.48,14.0,31.41,1.0,31.25,-30.0,3904.39,0.0,8.48,-12.0,0.43,2.0,31.3,-2.0,31.37,12.0,31.2,-26.0,3904.39,-32.0,46.83,46.0,3992.93,-3.0,31.42,-6.0,31.55,-27.0,31.5,23.0,3902.44,32.0,138.96,15.0,0.0,65533.0,31.62,14.0,31.13,4.0,31.51,-2.0,3904.39,0.0,114.57,19.0,46.04,19.0,31.79,-3.0,31.13,-5.0,31.58,5.0,3904.39,-32.0,172.62,-14.0,103.72,-3.0
0,0.52,10.0,31.35,20.0,0.42,-22.0,3903.41,-16.0,84.45,-5.0,3970.55,-6.0,0.54,-3.0,31.46,-9.0,0.44,1.0,3904.39,-32.0,9.39,-55.0,3976.16,3.0,0.52,5.0,31.4,-10.0,0.63,8.0,3904.39,0.0,3994.09,-2.0,3988.23,-10.0,0.58,-3.0,31.3,-4.0,0.4,-9.0,3904.39,-16.0,3951.83,4.0,3992.74,7.0,0.5,-15.0,31.17,-26.0,0.42,1.0,3904.39,-16.0,3908.17,43.0,9.33,-4.0
1,31.87,0.0,31.03,-23.0,0.22,-15.0,3896.59,0.0,3946.83,-9.0,3966.16,-18.0,31.78,15.0,30.85,28.0,0.08,10.0,3893.66,32.0,3944.27,-18.0,3929.33,2.0,31.86,-16.0,30.91,-23.0,31.98,-30.0,3895.61,16.0,3877.44,13.0,3937.93,-6.0,31.96,9.0,31.15,12.0,31.82,9.0,3896.59,-16.0,3939.39,-5.0,3934.15,3.0,0.02,-1.0,31.09,-6.0,31.75,1.0,3895.61,-16.0,3947.8,1.0,3932.62,3.0
1,0.09,-11.0,31.67,-8.0,0.2,18.0,3899.51,-32.0,3900.61,-38.0,3928.23,-9.0,31.65,-9.0,31.24,2.0,31.95,-27.0,3897.56,-16.0,3864.57,25.0,3858.84,-26.0,31.06,-30.0,31.05,19.0,31.63,-24.0,3898.54,0.0,3830.24,10.0,3799.82,-9.0,30.34,-33.0,31.53,7.0,30.91,-69.0,3898.54,-16.0,3552.07,-131.0,3823.11,15.0,30.97,54.0,31.74,16.0,31.6,9.0,3898.54,-16.0,102.26,96.0,3884.82,35.0
0,31.68,-11.0,31.06,-9.0,0.1,-20.0,3903.41,0.0,3.48,-16.0,3990.73,3.0,31.66,-13.0,31.02,15.0,0.17,1.0,3904.39,0.0,13.23,-1.0,3990.73,-1.0,31.73,12.0,31.15,-12.0,0.1,15.0,3906.34,-64.0,23.29,-20.0,3987.87,-3.0,31.76,15.0,31.13,-13.0,0.2,-1.0,3902.44,16.0,72.26,-12.0,8.96,1.0,31.77,-10.0,31.11,-6.0,0.29,-13.0,3905.37,-48.0,58.54,13.0,12.2,4.0
1,31.58,-12.0,31.6,-16.0,0.13,-26.0,3898.54,16.0,3884.21,0.0,45.43,8.0,30.97,-22.0,31.73,-1.0,31.98,6.0,3899.51,-32.0,3781.1,-73.0,59.94,-4.0,30.5,-22.0,31.42,-34.0,31.77,4.0,3900.49,-32.0,3629.76,84.0,3995.06,-40.0,30.75,25.0,31.6,64.0,31.68,1.0,3899.51,0.0,3980.3,-4.0,3944.94,15.0,31.3,1.0,31.88,9.0,31.71,2.0,3901.46,-48.0,3911.89,-51.0,3939.39,-4.0
1,31.58,-12.0,31.6,-16.0,0.13,-26.0,3898.54,16.0,3884.21,0.0,45.43,8.0,30.97,-22.0,31.73,-1.0,31.98,6.0,3899.51,-32.0,3781.1,-73.0,59.94,-4.0,30.5,-22.0,31.42,-34.0,31.77,4.0,3900.49,-32.0,3629.76,84.0,3995.06,-40.0,30.75,25.0,31.6,64.0,31.68,1.0,3899.51,0.0,3980.3,-4.0,3944.94,15.0,31.3,1.0,31.88,9.0,31.71,2.0,3901.46,-48.0,3911.89,-51.0,3939.39,-4.0
0,31.54,0.0,31.56,11.0,31.22,-21.0,3905.37,-32.0,22.07,-4.0,3993.54,-5.0,31.47,11.0,31.53,-24.0,31.14,31.0,3905.37,0.0,11.16,15.0,3976.83,-5.0,31.57,-32.0,31.37,-10.0,31.07,-2.0,3903.41,32.0,24.63,25.0,3964.57,35.0,31.28,-1.0,31.6,12.0,31.19,7.0,3903.41,16.0,3964.94,-1.0,3957.99,-11.0,31.24,10.0,31.55,23.0,31.22,24.0,3904.39,0.0,3965.18,6.0,3927.68,-14.0
0,0.68,4.0,31.46,1.0,0.45,9.0,3905.37,-32.0,35.37,-5.0,3996.04,-65532.0,0.7,-13.0,31.49,-4.0,0.44,13.0,3903.41,16.0,43.78,-11.0,3995.91,-65532.0,0.65,-2.0,31.57,8.0,0.5,-8.0,3906.34,-32.0,12.99,-12.0,3992.13,1.0,0.66,0.0,31.54,29.0,0.51,-40.0,3902.44,0.0,3980.49,-12.0,3993.84,10.0,0.67,-21.0,31.54,0.0,0.56,31.0,3904.39,16.0,40.0,13.0,3991.65,2.0
1,0.96,54.0,31.9,-5.0,0.01,5.0,3920.0,-32.0,3989.27,1.0,3992.5,9.0,1.1,5.0,31.73,-24.0,31.86,-15.0,3919.02,16.0,3.96,20.0,5.37,13.0,0.96,-5.0,31.84,8.0,0.03,25.0,3920.98,-32.0,18.72,-13.0,2.8,0.0,1.01,25.0,31.93,-11.0,31.99,0.0,3920.98,0.0,14.76,-2.0,12.38,7.0,1.01,9.0,31.91,-4.0,31.99,-11.0,3920.98,-32.0,3994.21,-9.0,3992.44,-3.0
0,31.78,-11.0,31.13,23.0,31.73,6.0,3907.32,-32.0,101.1,-20.0,3953.11,10.0,31.85,-11.0,30.98,33.0,31.63,16.0,3907.32,-32.0,22.56,5.0,3982.99,-11.0,31.69,0.0,31.2,-18.0,31.73,21.0,3905.37,32.0,2.62,-6.0,3967.74,-6.0,31.77,3.0,31.04,-9.0,31.76,-11.0,3905.37,-16.0,3987.68,-11.0,3971.71,3.0,31.81,4.0,31.08,-7.0,31.82,24.0,3905.37,16.0,3992.74,-32.0,3988.48,-1.0
0,0.68,-12.0,31.43,11.0,0.41,1.0,3903.41,16.0,3993.72,-4.0,0.18,65524.0,0.66,27.0,31.41,27.0,0.37,22.0,3905.37,-48.0,3995.98,-65534.0,3990.79,0.0,0.72,11.0,31.43,-14.0,0.35,-9.0,3903.41,16.0,3992.32,1.0,0.24,1.0,0.69,0.0,31.37,-5.0,0.38,-15.0,3902.44,32.0,3991.59,3.0,3.11,7.0,0.68,12.0,31.38,5.0,0.32,-11.0,3904.39,0.0,3994.76,6.0,0.49,6.0
0,0.02,-6.0,31.01,45.0,0.14,-33.0,3904.39,32.0,3901.89,-91.0,3932.38,-1.0,0.0,65526.0,31.25,17.0,31.85,-33.0,3906.34,-32.0,210.3,65.0,3963.41,43.0,31.51,63.0,30.6,-123.0,31.87,-284.0,3904.39,32.0,37.93,160.0,98.66,104.0,31.52,-2.0,30.98,-7.0,31.98,20.0,3906.34,0.0,3970.85,-19.0,75.91,-6.0,31.53,-23.0,31.11,-100.0,0.19,10.0,3904.39,32.0,3964.63,-32.0,56.1,-25.0
0,0.58,1.0,31.2,14.0,0.27,-3.0,3907.32,-16.0,3986.34,13.0,4.88,0.0,0.57,7.0,31.29,-4.0,0.24,26.0,3905.37,-16.0,3977.87,-12.0,2.8,1.0,0.57,-2.0,31.19,-2.0,0.25,-10.0,3903.41,80.0,3983.41,9.0,4.39,5.0,0.56,-9.0,31.24,3.0,0.24,-3.0,3907.32,-16.0,3994.33,-14.0,1.28,3.0,0.55,23.0,31.22,-4.0,0.23,-11.0,3905.37,-16.0,3990.49,-15.0,4.63,-3.0
0,0.62,-25.0,31.19,-16.0,0.23,5.0,3902.44,0.0,3948.84,17.0,25.0,-1.0,0.63,-7.0,31.2,0.0,0.14,-10.0,3902.44,0.0,3966.52,30.0,7.74,-1.0,0.57,7.0,31.21,-1.0,0.24,5.0,3904.39,0.0,39.02,21.0,4.76,-5.0,0.5,35.0,31.25,61.0,0.32,0.0,3904.39,-48.0,162.8,-44.0,3981.71,-18.0,0.63,-6.0,31.28,-8.0,0.43,-16.0,3902.44,16.0,4.7,56.0,3983.35,5.0
1,0.88,-27.0,31.44,40.0,0.07,39.0,3910.24,-48.0,3990.61,-38.0,7.93,-30.0,0.85,-6.0,31.48,1.0,0.08,17.0,3907.32,32.0,3995.61,-2.0,4.94,-1.0,0.84,22.0,31.47,-1.0,0.1,-4.0,3909.27,-32.0,1.4,-2.0,0.67,-5.0,0.85,0.0,31.48,-5.0,0.11,1.0,3909.27,-16.0,2.26,-4.0,0.12,2.0,0.85,-6.0,31.48,4.0,0.11,-12.0,3909.27,-16.0,1.52,-2.0,0.43,2.0
0,31.68,-6.0,31.37,16.0,0.61,12.0,3908.29,0.0,1.46,8.0,3995.98,1.0,31.67,1.0,31.42,13.0,0.61,0.0,3905.37,16.0,7.68,-11.0,5.37,4.0,31.65,-1.0,31.43,14.0,0.61,15.0,3906.34,32.0,10.61,-8.0,14.02,2.0,31.61,0.0,31.45,-20.0,0.6,23.0,3907.32,16.0,0.0,65533.0,12.32,-1.0,31.57,-19.0,31.45,5.0,0.58,56.0,3904.39,0.0,12.93,19.0,21.4,-4.0
1,1.01,-5.0,31.81,11.0,31.93,20.0,3921.95,32.0,3994.33,6.0,0.85,4.0,1.0,13.0,31.81,-21.0,31.94,-10.0,3924.88,-16.0,3994.63,-5.0,1.46,-3.0,1.0,-8.0,31.8,-3.0,31.93,-2.0,3920.98,32.0,0.3,2.0,3995.12,0.0,1.0,4.0,31.8,-1.0,31.93,6.0,3921.95,16.0,3994.21,-1.0,3989.39,2.0,1.01,-7.0,31.81,-7.0,31.91,-20.0,3921.95,0.0,3995.67,0.0,3987.13,0.0
0,31.77,44.0,30.52,-56.0,31.83,-39.0,3903.41,-32.0,3893.72,165.0,3974.51,-8.0,31.99,8.0,30.89,28.0,31.88,4.0,3904.39,-32.0,45.37,51.0,3992.62,20.0,31.96,55.0,31.27,-21.0,31.95,-57.0,3904.39,-32.0,3989.63,-102.0,3975.12,-41.0,0.06,-2.0,30.9,-52.0,31.72,-65.0,3902.44,0.0,3942.62,51.0,3972.32,12.0,0.04,-4.0,30.88,-6.0,31.8,-16.0,3904.39,-48.0,3973.29,38.0,3982.93,4.0
0,31.03,9.0,31.44,39.0,31.87,3.0,3905.37,0.0,77.62,0.0,15.24,4.0,31.02,-2.0,31.44,14.0,31.92,8.0,3903.41,16.0,19.02,24.0,15.3,-5.0,30.86,24.0,31.51,9.0,31.91,6.0,3906.34,0.0,41.59,-31.0,3990.61,0.0,30.86,3.0,31.52,4.0,31.88,-9.0,3906.34,0.0,0.18,10.0,3993.23,6.0,30.97,0.0,31.4,-7.0,31.81,1.0,3904.39,0.0,37.2,-6.0,10.0,1.0
0,31.48,-11.0,31.37,-24.0,31.39,38.0,3903.41,-16.0,44.45,27.0,3989.94,-17.0,31.39,8.0,31.28,-13.0,31.29,45.0,3902.44,-32.0,3981.34,-6.0,16.46,0.0,31.48,-1.0,31.18,-5.0,31.42,14.0,3902.44,-32.0,3978.96,-9.0,11.83,-8.0,31.48,0.0,31.44,-22.0,31.37,8.0,3902.44,-16.0,15.49,-68.0,3987.13,-6.0,31.61,7.0,31.31,-7.0,31.45,-41.0,3903.41,-32.0,11.04,-13.0,6.04,19.0
0,31.37,13.0,31.52,7.0,31.48,3.0,3901.46,32.0,46.71,-12.0,15.91,-7.0,31.44,-3.0,31.17,-10.0,31.54,-18.0,3901.46,16.0,3984.51,13.0,3986.77,6.0,31.43,-16.0,31.18,5.0,31.49,23.0,3902.44,0.0,3966.04,-1.0,3961.28,-4.0,31.47,-9.0,31.23,-3.0,31.42,12.0,3904.39,-32.0,3947.62,-9.0,3944.45,4.0,31.43,-20.0,31.28,-6.0,31.45,15.0,3900.49,0.0,3966.34,7.0,3953.17,14.0
0,0.65,5.0,31.32,-8.0,0.34,-11.0,3904.39,16.0,3972.74,2.0,3985.79,-1.0,0.61,-2.0,31.3,12.0,0.31,18.0,3904.39,-16.0,3977.26,-12.0,3993.05,1.0,0.59,21.0,31.23,-4.0,0.24,7.0,3903.41,32.0,3971.65,1.0,3987.38,-5.0,0.58,2.0,31.25,14.0,0.22,-13.0,3905.37,-32.0,3990.37,-15.0,3989.63,4.0,0.58,-1.0,31.23,-5.0,0.28,-4.0,3903.41,0.0,47.13,32.0,3989.94,-2.0
0,31.33,-1.0,31.59,-23.0,31.22,19.0,3904.39,-32.0,3968.29,-21.0,3916.59,8.0,31.48,5.0,31.53,2.0,31.24,19.0,3902.44,32.0,3936.04,6.0,3944.21,8.0,31.5,-3.0,31.48,1.0,31.27,-32.0,3904.39,-16.0,3924.7,0.0,3986.71,16.0,31.53,5.0,31.36,10.0,31.31,-14.0,3904.39,16.0,3954.15,5.0,42.93,2.0,31.56,7.0,31.25,5.0,31.08,2.0,3905.37,-32.0,3970.61,-2.0,54.21,2.0
0,0.06,-23.0,31.62,-5.0,30.94,31.0,3902.44,-64.0,3991.04,14.0,3989.02,5.0,0.09,-6.0,31.67,-6.0,30.91,0.0,3902.44,-16.0,2.8,-3.0,3988.48,11.0,0.07,-2.0,31.69,19.0,30.94,-8.0,3901.46,0.0,3990.3,-16.0,3993.23,-7.0,0.14,2.0,31.63,6.0,30.95,12.0,3902.44,-32.0,3986.04,-2.0,2.68,1.0,0.06,-2.0,31.72,-1.0,30.92,21.0,3902.44,-64.0,0.49,-4.0,3993.23,-1.0
1,31.58,12.0,31.13,6.0,0.16,28.0,3907.32,-48.0,3964.82,54.0,3850.55,-6.0,31.41,10.0,31.17,-12.0,0.15,2.0,3905.37,-32.0,3937.68,14.0,3856.77,7.0,31.07,0.0,31.25,2.0,31.97,-22.0,3904.39,0.0,3850.61,-36.0,3930.0,16.0,30.92,-3.0,31.34,23.0,31.97,12.0,3904.39,0.0,19.82,-5.0,2.99,19.0,31.2,-13.0,31.56,-16.0,0.12,29.0,3904.39,16.0,148.9,76.0,34.82,1.0
1,0.07,-2.0,31.49,-3.0,0.44,0.0,3898.54,16.0,3958.84,-13.0,1.71,9.0,31.89,-10.0,31.69,1.0,0.23,-1.0,3901.46,-32.0,3903.72,-40.0,33.17,6.0,31.26,-44.0,31.27,17.0,0.22,-24.0,3899.51,48.0,3918.41,25.0,29.57,4.0,30.44,-70.0,31.78,26.0,31.74,61.0,3900.49,0.0,3665.98,-195.0,41.59,-5.0,30.89,40.0,31.11,59.0,31.92,-9.0,3901.46,0.0,3659.15,227.0,3927.8,5.0
0,0.22,1.0,31.11,0.0,31.54,12.0,3904.39,-16.0,36.52,13.0,3980.73,0.0,0.28,-26.0,30.87,-48.0,31.35,-53.0,3905.37,0.0,3930.37,-2.0,3947.8,11.0,0.22,-10.0,30.95,-8.0,31.45,-19.0,3904.39,0.0,3965.49,22.0,3964.45,3.0,0.18,-7.0,31.21,4.0,31.4,12.0,3904.39,-32.0,106.77,-43.0,3987.56,5.0,0.28,3.0,31.02,-32.0,31.52,35.0,3906.34,-32.0,147.56,-26.0,9.82,10.0
0,31.11,-3.0,31.37,11.0,0.03,-5.0,3901.46,48.0,3905.18,1.0,3925.0,11.0,31.34,14.0,31.26,-41.0,31.85,4.0,3902.44,32.0,3967.56,38.0,3934.7,8.0,31.62,14.0,31.46,5.0,31.88,-17.0,3902.44,32.0,3831.89,-141.0,3962.74,28.0,31.94,8.0,31.38,-44.0,31.23,-37.0,3904.39,-16.0,3408.48,2.0,52.32,43.0,31.52,2.0,31.29,13.0,31.01,-8.0,3901.46,32.0,3914.09,136.0,12.62,-7.0
1,0.92,3.0,31.5,78.0,31.8,32.0,3924.88,16.0,24.57,31.0,33.78,-3.0,0.97,11.0,31.6,18.0,31.83,7.0,3927.8,48.0,23.78,0.0,54.51,12.0,0.96,-11.0,31.63,5.0,31.94,32.0,3927.8,-32.0,37.62,4.0,79.33,16.0,0.99,-4.0,31.7,3.0,0.09,-29.0,3928.78,-64.0,51.52,2.0,119.21,19.0,0.74,-20.0,31.74,-3.0,0.24,13.0,3925.85,32.0,64.63,14.0,189.33,28.0
0,0.5,10.0,31.32,1.0,0.21,5.0,3902.44,0.0,3986.83,-47.0,10.91,3.0,0.58,-18.0,31.02,-6.0,0.1,-23.0,3902.44,-16.0,3829.33,13.0,37.68,3.0,0.4,-3.0,31.09,7.0,0.06,4.0,3903.41,-16.0,3946.1,-44.0,20.24,-13.0,0.43,4.0,31.17,-2.0,31.81,12.0,3903.41,16.0,3935.79,-36.0,1.16,-7.0,0.41,-5.0,31.23,-2.0,31.87,-9.0,3902.44,0.0,3966.46,-11.0,3962.62,-6.0
0,0.21,-7.0,31.6,-22.0,30.89,30.0,3901.46,16.0,14.82,12.0,3994.51,-2.0,0.08,-27.0,31.79,28.0,30.92,10.0,3900.49,0.0,3990.61,-15.0,5.98,-5.0,0.29,-10.0,31.62,5.0,31.02,15.0,3900.49,0.0,3935.06,32.0,3967.07,-6.0,0.22,-34.0,31.64,74.0,30.88,-44.0,3900.49,16.0,3957.26,35.0,3980.43,-7.0,0.11,15.0,31.79,-7.0,30.9,-3.0,3903.41,0.0,9.7,8.0,3986.04,-5.0
0,0.21,-7.0,31.71,18.0,31.07,-20.0,3901.46,0.0,14.82,-8.0,3.78,-11.0,0.21,-11.0,31.64,-13.0,30.96,-26.0,3901.46,-16.0,3992.87,8.0,3983.66,-1.0,0.24,18.0,31.69,40.0,30.93,-21.0,3901.46,-16.0,3989.45,-23.0,3978.9,2.0,0.21,-14.0,31.66,11.0,30.88,-10.0,3902.44,0.0,4.51,10.0,3971.89,0.0,0.25,-2.0,31.69,15.0,30.91,-22.0,3900.49,48.0,21.95,1.0,3983.6,5.0
1,31.97,-2.0,31.32,1.0,0.56,1.0,3903.41,32.0,15.12,15.0,3993.35,20.0,0.02,8.0,31.6,-4.0,0.43,15.0,3905.37,-16.0,3968.35,-63.0,3986.34,2.0,0.04,-13.0,30.99,-2.0,0.58,5.0,3904.39,32.0,3982.56,25.0,3989.94,1.0,0.02,7.0,31.31,3.0,0.54,1.0,3903.41,64.0,3960.79,-9.0,8.17,12.0,0.01,3.0,31.38,18.0,0.49,-15.0,3905.37,16.0,3993.23,-1.0,34.76,5.0
0,31.67,-27.0,31.52,-17.0,31.09,2.0,3901.46,32.0,2.01,-6.0,5.06,-9.0,31.62,-9.0,31.46,-19.0,31.1,6.0,3905.37,-16.0,3983.11,20.0,5.12,1.0,31.59,46.0,31.46,-14.0,31.19,-42.0,3904.39,0.0,3983.6,35.0,3978.35,4.0,31.6,-10.0,31.5,-24.0,31.01,-42.0,3904.39,0.0,3977.93,-29.0,3991.46,20.0,31.46,-23.0,31.56,30.0,31.21,24.0,3904.39,-16.0,3976.71,20.0,6.71,-5.0
0,31.36,-6.0,31.48,11.0,31.87,11.0,3906.34,-16.0,3915.06,-57.0,28.05,-12.0,31.3,17.0,31.17,24.0,31.53,-11.0,3905.37,0.0,161.89,-29.0,29.39,22.0,31.45,-1.0,31.41,40.0,31.85,-45.0,3907.32,-32.0,81.52,-52.0,68.6,28.0,31.06,-12.0,31.02,-30.0,31.99,0.0,3905.37,16.0,75.61,80.0,36.16,-31.0,30.87,23.0,31.64,134.0,31.93,-31.0,3906.34,0.0,81.59,-72.0,3948.41,30.0
0,0.8,-7.0,31.31,6.0,0.05,44.0,3905.37,0.0,38.41,35.0,3991.65,-1.0,0.8,-8.0,31.24,-95.0,31.77,40.0,3903.41,0.0,10.61,-54.0,3995.98,-25.0,0.83,0.0,31.29,-25.0,0.05,21.0,3905.37,-32.0,3906.1,37.0,3.6,-11.0,0.7,-23.0,31.43,-2.0,0.08,-2.0,3904.39,0.0,3958.29,-5.0,3992.99,-2.0,0.76,3.0,31.51,-27.0,31.81,-168.0,3904.39,0.0,1.59,45.0,3986.52,51.0
1,31.87,0.0,31.03,-23.0,0.22,-15.0,3896.59,0.0,3946.83,-9.0,3966.16,-18.0,31.78,15.0,30.85,28.0,0.08,10.0,3893.66,32.0,3944.27,-18.0,3929.33,2.0,31.86,-16.0,30.91,-23.0,31.98,-30.0,3895.61,16.0,3877.44,13.0,3937.93,-6.0,31.96,9.0,31.15,12.0,31.82,9.0,3896.59,-16.0,3939.39,-5.0,3934.15,3.0,0.02,-1.0,31.09,-6.0,31.75,1.0,3895.61,-16.0,3947.8,1.0,3932.62,3.0
0,0.44,14.0,31.33,33.0,31.99,15.0,3903.41,16.0,36.83,-80.0,3954.21,7.0,0.53,-4.0,31.16,11.0,32.0,-10.0,3902.44,32.0,20.18,8.0,3964.27,2.0,0.56,4.0,31.12,-8.0,0.05,-6.0,3904.39,-32.0,44.45,10.0,3970.3,1.0,0.52,1.0,31.13,-5.0,0.2,25.0,3902.44,16.0,49.51,6.0,3974.94,-8.0,0.45,-14.0,31.22,9.0,0.32,22.0,3905.37,-48.0,153.6,27.0,3975.24,-11.0
0,31.09,6.0,31.25,46.0,31.36,3.0,3901.46,48.0,3867.62,-172.0,3994.21,-6.0,31.81,29.0,31.14,56.0,31.63,-52.0,3903.41,-16.0,9.27,28.0,3981.77,-13.0,0.02,-1.0,31.01,-32.0,31.35,20.0,3902.44,0.0,38.72,121.0,3995.79,-15.0,0.01,-15.0,31.23,58.0,31.31,-9.0,3902.44,0.0,10.98,-9.0,3995.73,-65530.0,0.41,32.0,31.31,27.0,30.85,-90.0,3902.44,0.0,35.06,18.0,9.76,26.0
1,31.67,-7.0,31.3,6.0,0.31,-24.0,3905.37,-32.0,3958.35,-33.0,3970.18,-1.0,31.66,-7.0,31.18,11.0,0.26,-18.0,3905.37,-16.0,3924.51,-24.0,3944.15,0.0,31.56,-18.0,30.96,21.0,0.13,-24.0,3904.39,0.0,3919.76,-9.0,3945.43,-1.0,31.54,-10.0,31.13,-23.0,31.94,-31.0,3904.39,16.0,3862.32,26.0,3924.33,-11.0,31.52,-1.0,31.54,3.0,31.89,-10.0,3905.37,0.0,3934.33,-76.0,3968.84,-2.0
0,0.74,-3.0,31.28,16.0,31.77,5.0,3905.37,0.0,88.41,-25.0,8.84,5.0,0.75,9.0,31.34,18.0,31.84,8.0,3905.37,32.0,3991.71,10.0,21.71,-12.0,0.75,15.0,31.35,-15.0,31.78,-2.0,3905.37,-16.0,11.28,8.0,7.87,-1.0,0.81,13.0,31.25,24.0,31.93,28.0,3904.39,0.0,63.17,55.0,1.89,-5.0,0.89,-25.0,31.42,8.0,0.12,58.0,3906.34,-16.0,87.5,9.0,3979.94,-13.0
0,0.62,8.0,31.52,-10.0,0.46,-5.0,3904.39,0.0,9.21,-11.0,3.72,4.0,0.62,9.0,31.46,-9.0,0.49,1.0,3904.39,32.0,3995.85,-65526.0,3991.34,2.0,0.59,6.0,31.5,15.0,0.54,15.0,3904.39,0.0,2.32,-13.0,3994.51,-2.0,0.63,7.0,31.45,3.0,0.5,-15.0,3904.39,32.0,3994.39,5.0,3994.94,4.0,0.62,-4.0,31.46,-10.0,0.5,4.0,3904.39,16.0,0.06,65529.0,0.49,-1.0
1,1.01,-5.0,31.81,11.0,31.93,20.0,3921.95,32.0,3994.33,6.0,0.85,4.0,1.0,13.0,31.81,-21.0,31.94,-10.0,3924.88,-16.0,3994.63,-5.0,1.46,-3.0,1.0,-8.0,31.8,-3.0,31.93,-2.0,3920.98,32.0,0.3,2.0,3995.12,0.0,1.0,4.0,31.8,-1.0,31.93,6.0,3921.95,16.0,3994.21,-1.0,3989.39,2.0,1.01,-7.0,31.81,-7.0,31.91,-20.0,3921.95,0.0,3995.67,0.0,3987.13,0.0
1,0.05,-13.0,31.61,-11.0,0.19,-1.0,3899.51,-16.0,3921.16,4.0,49.94,16.0,31.49,-33.0,31.49,-9.0,0.09,-15.0,3900.49,0.0,3947.87,16.0,113.6,10.0,30.08,-7.0,31.7,15.0,31.94,-39.0,3899.51,0.0,3834.33,-116.0,114.88,-16.0,30.78,5.0,31.58,255.0,31.98,-51.0,3901.46,-16.0,3606.83,53.0,3968.6,-27.0,30.76,17.0,31.58,30.0,31.51,10.0,3898.54,0.0,3918.54,-60.0,3914.76,-28.0
1,31.97,10.0,31.2,11.0,0.57,-17.0,3897.56,-32.0,3985.79,-9.0,3970.55,-2.0,0.1,5.0,31.26,-4.0,0.45,-3.0,3896.59,0.0,3935.18,-12.0,3967.5,2.0,0.13,10.0,31.12,-29.0,0.44,27.0,3897.56,-32.0,3955.0,-5.0,3977.62,-12.0,31.95,8.0,31.17,26.0,0.33,1.0,3896.59,0.0,15.12,-5.0,3970.67,8.0,31.87,-3.0,30.71,-14.0,0.44,-38.0,3895.61,32.0,3939.88,38.0,3972.93,3.0
1,0.1,-4.0,31.52,-13.0,0.52,16.0,3902.44,-32.0,3961.1,-12.0,0.49,-1.0,0.02,-16.0,31.37,-3.0,0.6,28.0,3902.44,0.0,3988.54,7.0,3968.66,1.0,31.89,-8.0,31.06,-26.0,0.73,31.0,3900.49,48.0,7.26,43.0,3964.7,-2.0,31.93,2.0,31.44,5.0,0.67,13.0,3901.46,32.0,3993.35,-25.0,3980.24,4.0,31.97,-3.0,31.26,11.0,0.6,-15.0,3901.46,16.0,3993.11,12.0,3989.88,4.0
1,0.98,13.0,31.75,2.0,31.97,-3.0,3909.27,0.0,3988.66,1.0,3993.78,-2.0,1.0,1.0,31.74,2.0,31.99,-65516.0,3911.22,-16.0,3993.17,-3.0,3991.46,1.0,0.99,8.0,31.75,-4.0,31.97,5.0,3908.29,32.0,3994.09,5.0,3989.15,4.0,1.02,-14.0,31.73,5.0,31.92,-5.0,3912.2,-32.0,3995.79,2.0,3991.28,-3.0,1.01,7.0,31.73,3.0,31.89,13.0,3912.2,-64.0,1.46,3.0,0.55,-2.0
1,31.94,11.0,30.91,198.0,0.39,37.0,3892.68,16.0,3975.91,56.0,2.93,-15.0,31.8,1.0,30.9,16.0,0.25,-13.0,3893.66,16.0,3965.12,23.0,3949.94,-5.0,31.85,2.0,31.05,-2.0,0.15,-15.0,3894.63,0.0,3945.49,-8.0,3933.66,-6.0,31.94,9.0,31.08,-8.0,0.02,-20.0,3891.71,64.0,3929.33,-2.0,3932.2,-1.0,0.08,-14.0,31.1,-9.0,31.88,-13.0,3893.66,-16.0,3904.15,6.0,3941.89,10.0
0,0.24,8.0,31.03,-12.0,31.87,-7.0,3901.46,16.0,108.29,18.0,0.43,0.0,0.25,-16.0,31.1,3.0,0.08,55.0,3904.39,-32.0,121.59,-8.0,3.54,-6.0,0.33,1.0,31.04,13.0,0.19,1.0,3903.41,-32.0,76.22,17.0,7.44,2.0,0.35,4.0,31.13,-4.0,0.2,-1.0,3901.46,32.0,15.49,-16.0,14.63,9.0,0.32,3.0,31.3,26.0,0.19,-12.0,3904.39,0.0,3935.49,-101.0,10.67,0.0
1,0.99,10.0,31.67,-3.0,0.0,65520.0,3926.83,0.0,1.1,1.0,8.11,0.0,0.97,5.0,31.66,0.0,0.02,-11.0,3927.8,-16.0,10.55,-10.0,8.17,1.0,0.94,4.0,31.6,-6.0,0.04,-28.0,3925.85,0.0,9.33,4.0,8.78,1.0,0.95,4.0,31.64,12.0,0.02,-23.0,3928.78,-48.0,12.74,0.0,14.94,7.0,0.96,-5.0,31.64,-5.0,0.05,6.0,3926.83,0.0,6.16,2.0,33.48,3.0
0,31.2,-4.0,31.42,6.0,0.17,-23.0,3905.37,-16.0,3937.2,-16.0,142.38,-23.0,30.9,-42.0,31.58,53.0,31.64,30.0,3906.34,0.0,60.85,15.0,135.18,-3.0,30.75,21.0,31.83,43.0,31.9,-7.0,3908.29,-32.0,137.99,-96.0,45.18,0.0,31.07,-10.0,31.93,-35.0,31.53,7.0,3906.34,32.0,19.82,-91.0,27.56,-13.0,31.06,9.0,31.61,-2.0,31.56,20.0,3906.34,-32.0,3921.95,103.0,3978.41,17.0
0,30.82,29.0,31.66,-6.0,31.66,-51.0,3902.44,32.0,3862.38,-44.0,3894.88,-10.0,30.85,-5.0,31.62,-21.0,31.56,-22.0,3904.39,-32.0,3788.23,-2.0,3882.32,6.0,31.13,-1.0,31.53,-3.0,31.89,0.0,3904.39,0.0,3876.16,51.0,3930.12,14.0,31.14,14.0,31.79,29.0,0.01,-12.0,3904.39,-16.0,3972.68,-29.0,3941.16,-22.0,31.22,-2.0,31.63,-35.0,0.08,35.0,3903.41,32.0,3837.32,13.0,3915.79,-3.0
0,31.77,10.0,31.28,28.0,0.24,6.0,3902.44,-16.0,3968.54,-37.0,171.83,18.0,31.93,-36.0,31.49,12.0,0.5,27.0,3899.51,0.0,3961.4,25.0,192.62,-18.0,31.22,-35.0,31.16,-54.0,0.54,6.0,3903.41,-32.0,3938.35,16.0,63.29,-57.0,31.28,-23.0,31.24,-40.0,0.4,-16.0,3899.51,32.0,3844.7,-1.0,3942.01,-15.0,31.25,-82.0,31.05,-74.0,0.27,14.0,3902.44,0.0,3928.17,-37.0,3932.99,-9.0
1,31.97,-2.0,31.32,1.0,0.56,1.0,3903.41,32.0,15.12,15.0,3993.35,20.0,0.02,8.0,31.6,-4.0,0.43,15.0,3905.37,-16.0,3968.35,-63.0,3986.34,2.0,0.04,-13.0,30.99,-2.0,0.58,5.0,3904.39,32.0,3982.56,25.0,3989.94,1.0,0.02,7.0,31.31,3.0,0.54,1.0,3903.41,64.0,3960.79,-9.0,8.17,12.0,0.01,3.0,31.38,18.0,0.49,-15.0,3905.37,16.0,3993.23,-1.0,34.76,5.0
0,0.6,-38.0,31.5,115.0,31.4,111.0,3902.44,16.0,357.99,-129.0,24.27,20.0,0.58,-4.0,31.5,-9.0,0.31,-11.0,3902.44,16.0,258.17,-145.0,71.65,-29.0,0.63,3.0,31.36,152.0,31.99,-28.0,3903.41,0.0,3959.7,-24.0,13.05,51.0,0.64,20.0,31.65,-11.0,31.98,17.0,3901.46,0.0,3879.94,-7.0,3963.41,18.0,0.97,78.0,30.45,22.0,31.05,-33.0,3903.41,16.0,148.54,58.0,3981.46,47.0
1,31.58,-12.0,31.6,-16.0,0.13,-26.0,3898.54,16.0,3884.21,0.0,45.43,8.0,30.97,-22.0,31.73,-1.0,31.98,6.0,3899.51,-32.0,3781.1,-73.0,59.94,-4.0,30.5,-22.0,31.42,-34.0,31.77,4.0,3900.49,-32.0,3629.76,84.0,3995.06,-40.0,30.75,25.0,31.6,64.0,31.68,1.0,3899.51,0.0,3980.3,-4.0,3944.94,15.0,31.3,1.0,31.88,9.0,31.71,2.0,3901.46,-48.0,3911.89,-51.0,3939.39,-4.0
0,0.07,3.0,30.98,34.0,31.65,-31.0,3903.41,0.0,30.24,-19.0,3990.79,27.0,31.85,9.0,31.03,-15.0,31.89,2.0,3903.41,16.0,3971.89,-11.0,3980.67,-11.0,0.21,-24.0,30.61,2.0,31.06,63.0,3904.39,32.0,54.02,94.0,42.87,42.0,31.9,2.0,30.99,-25.0,0.01,-15.0,3904.39,-32.0,3944.39,6.0,3986.22,-12.0,31.86,13.0,30.86,-29.0,31.95,-33.0,3905.37,0.0,54.15,63.0,3994.88,-65510.0
0,0.12,2.0,31.74,-6.0,31.03,-24.0,3901.46,0.0,3982.13,15.0,32.62,4.0,0.08,6.0,31.88,5.0,30.83,23.0,3902.44,-32.0,33.29,-2.0,38.6,-3.0,0.2,-1.0,31.86,42.0,30.88,0.0,3902.44,-32.0,31.16,-16.0,34.7,-1.0,0.17,-27.0,31.79,12.0,30.91,56.0,3900.49,0.0,3988.72,-18.0,45.3,4.0,0.15,19.0,31.75,-23.0,30.97,-43.0,3902.44,-16.0,3995.49,-17.0,30.85,-2.0
0,31.56,1.0,31.57,5.0,0.64,0.0,3905.37,-16.0,0.24,65530.0,2.62,-2.0,31.56,-13.0,31.57,-7.0,0.65,-19.0,3905.37,32.0,3993.78,-6.0,0.0,3.0,31.56,-9.0,31.54,-4.0,0.65,-1.0,3907.32,-16.0,3990.37,3.0,3993.17,2.0,31.55,-2.0,31.53,5.0,0.63,20.0,3907.32,0.0,3987.2,0.0,3988.72,1.0,31.58,-3.0,31.53,-2.0,0.64,-8.0,3907.32,-16.0,2.87,4.0,0.06,65530.0
0,31.47,-10.0,31.47,-4.0,0.14,27.0,3906.34,0.0,25.37,-105.0,29.94,-17.0,31.48,20.0,31.4,-104.0,31.94,-104.0,3904.39,32.0,3739.7,-132.0,16.95,14.0,31.42,-3.0,31.25,-14.0,31.5,-39.0,3906.34,-16.0,3795.55,49.0,31.65,12.0,31.4,21.0,31.27,81.0,31.39,1.0,3905.37,0.0,3974.02,26.0,28.9,6.0,31.27,-1.0,31.31,-1.0,31.5,-1.0,3905.37,32.0,137.68,-31.0,2.87,-9.0
0,31.54,-42.0,30.64,69.0,31.96,56.0,3902.44,-16.0,7.68,52.0,29.02,-5.0,31.81,33.0,30.94,20.0,31.82,10.0,3903.41,-32.0,17.87,36.0,3980.0,3.0,31.79,-16.0,30.93,11.0,31.77,7.0,3903.41,16.0,38.6,7.0,3990.85,-9.0,31.76,-4.0,30.94,23.0,31.8,-5.0,3901.46,48.0,23.17,22.0,3986.59,2.0,31.79,1.0,30.96,-4.0,31.74,5.0,3902.44,32.0,7.13,7.0,3988.9,11.0
1,31.87,-1.0,31.22,-22.0,0.34,16.0,3899.51,32.0,3964.51,-3.0,3947.74,-10.0,31.95,30.0,31.12,15.0,0.25,19.0,3901.46,0.0,3967.44,-19.0,3949.15,6.0,0.17,-18.0,30.92,-13.0,0.11,15.0,3900.49,-32.0,3946.95,-12.0,3979.09,7.0,0.08,10.0,31.08,14.0,0.08,-20.0,3900.49,-16.0,3985.06,-19.0,5.43,8.0,31.98,16.0,30.84,10.0,0.17,-19.0,3899.51,0.0,3926.22,21.0,36.52,8.0
0,0.58,6.0,31.22,-1.0,0.12,18.0,3903.41,32.0,79.7,-3.0,3986.22,-2.0,0.62,-3.0,31.29,16.0,0.24,-23.0,3905.37,0.0,64.7,3.0,3990.12,1.0,0.63,3.0,31.32,-9.0,0.31,-20.0,3903.41,0.0,35.85,10.0,3989.88,4.0,0.69,-1.0,31.44,-24.0,0.34,-11.0,3905.37,-32.0,51.1,-9.0,3989.57,-3.0,0.68,-5.0,31.44,-10.0,0.37,20.0,3905.37,-16.0,45.55,-12.0,3993.05,3.0
0,30.97,9.0,31.64,-8.0,31.85,20.0,3904.39,0.0,22.56,8.0,2.93,-5.0,31.07,18.0,31.73,-10.0,31.87,8.0,3902.44,0.0,4.63,-12.0,3991.22,-2.0,31.06,10.0,31.74,-23.0,31.87,-3.0,3904.39,16.0,3975.43,6.0,3990.85,8.0,31.04,9.0,31.75,-6.0,31.89,-5.0,3905.37,-32.0,3994.21,2.0,0.61,1.0,31.08,3.0,31.75,2.0,31.92,8.0,3905.37,-32.0,3989.39,-2.0,3995.67,-1.0
1,0.99,-3.0,31.74,0.0,31.89,-16.0,3915.12,0.0,3990.79,-2.0,3991.77,-2.0,1.02,4.0,31.74,10.0,31.87,-1.0,3911.22,32.0,3983.66,-3.0,3.29,0.0,0.96,1.0,31.72,-5.0,31.83,-3.0,3913.17,-32.0,3975.98,4.0,3995.91,-5.0,0.97,5.0,31.68,-19.0,31.81,-4.0,3913.17,0.0,3992.38,8.0,3983.23,-5.0,1.0,1.0,31.73,-1.0,31.82,10.0,3913.17,16.0,4.09,0.0,3979.76,2.0
1,31.9,1.0,31.14,-4.0,0.18,-1.0,3895.61,16.0,3950.18,-3.0,3979.94,-6.0,31.92,3.0,31.0,-16.0,0.1,-14.0,3896.59,0.0,3943.11,-7.0,3969.88,7.0,31.95,5.0,31.07,7.0,0.1,-3.0,3895.61,0.0,3977.68,7.0,3975.55,-1.0,0.08,-14.0,30.9,5.0,0.0,29.0,3894.63,32.0,3954.39,29.0,3981.95,1.0,0.05,12.0,31.08,4.0,0.05,4.0,3894.63,16.0,3994.09,-4.0,3989.27,-3.0
1,31.92,-6.0,31.28,2.0,0.42,14.0,3893.66,0.0,8.41,-10.0,3977.2,-14.0,31.97,13.0,31.15,-31.0,0.34,-7.0,3894.63,-32.0,3963.35,-11.0,3924.88,5.0,0.01,14.0,31.18,9.0,0.34,11.0,3893.66,0.0,3945.79,-18.0,3926.77,-15.0,0.12,7.0,31.03,6.0,0.09,-7.0,3894.63,-32.0,3899.63,3.0,3921.34,2.0,0.18,-12.0,30.96,-2.0,31.94,9.0,3894.63,16.0,3917.8,-19.0,3952.93,9.0
0,31.63,-10.0,31.35,-22.0,0.25,11.0,3904.39,-32.0,3960.06,28.0,3975.73,-4.0,31.63,-28.0,30.77,-10.0,0.89,13.0,3902.44,-16.0,3973.78,64.0,3957.44,-13.0,31.67,-2.0,30.88,-10.0,0.63,-14.0,3903.41,0.0,14.09,-16.0,3887.2,-9.0,31.67,7.0,31.01,-2.0,0.24,-19.0,3903.41,16.0,4.94,-28.0,3880.61,6.0,31.76,8.0,31.15,-14.0,31.98,26.0,3901.46,16.0,3916.34,-52.0,3947.56,16.0
1,31.91,15.0,31.21,-34.0,0.63,-29.0,3902.44,0.0,3955.85,24.0,3975.3,-9.0,31.94,-2.0,31.24,-1.0,0.55,-14.0,3902.44,16.0,3982.2,8.0,3970.12,4.0,31.9,4.0,31.26,-5.0,0.54,-14.0,3903.41,16.0,3983.23,-5.0,3968.54,-3.0,31.87,14.0,31.04,-28.0,0.54,37.0,3903.41,0.0,3941.46,8.0,3949.45,-8.0,31.92,7.0,31.34,4.0,0.41,22.0,3903.41,16.0,3945.79,0.0,3967.74,13.0
1,31.58,12.0,31.13,6.0,0.16,28.0,3907.32,-48.0,3964.82,54.0,3850.55,-6.0,31.41,10.0,31.17,-12.0,0.15,2.0,3905.37,-32.0,3937.68,14.0,3856.77,7.0,31.07,0.0,31.25,2.0,31.97,-22.0,3904.39,0.0,3850.61,-36.0,3930.0,16.0,30.92,-3.0,31.34,23.0,31.97,12.0,3904.39,0.0,19.82,-5.0,2.99,19.0,31.2,-13.0,31.56,-16.0,0.12,29.0,3904.39,16.0,148.9,76.0,34.82,1.0
0,31.68,39.0,30.97,52.0,31.39,6.0,3900.49,0.0,3978.35,34.0,3993.05,26.0,31.45,-23.0,30.96,14.0,31.56,-11.0,3901.46,0.0,19.21,4.0,32.93,-5.0,31.62,29.0,31.09,9.0,31.53,-2.0,3903.41,-32.0,3988.6,-30.0,15.85,3.0,31.67,16.0,31.21,19.0,31.51,-35.0,3899.51,32.0,3938.17,-40.0,7.2,10.0,31.79,6.0,31.24,40.0,31.35,-46.0,3903.41,-16.0,3887.68,-57.0,3986.46,-1.0
1,0.97,-5.0,31.7,14.0,0.06,7.0,3924.88,-16.0,3985.06,-2.0,7.2,-14.0,0.96,-6.0,31.67,-5.0,0.04,-10.0,3926.83,-32.0,3990.0,0.0,3988.29,-8.0,0.92,-4.0,31.71,-33.0,0.03,-7.0,3923.9,32.0,3982.62,-3.0,3992.74,-12.0,0.99,-7.0,31.66,-4.0,31.97,19.0,3924.88,16.0,3994.21,2.0,3975.85,-6.0,1.01,12.0,31.7,-7.0,31.9,34.0,3924.88,0.0,11.4,-1.0,3988.54,-7.0
1,0.09,-11.0,31.67,-8.0,0.2,18.0,3899.51,-32.0,3900.61,-38.0,3928.23,-9.0,31.65,-9.0,31.24,2.0,31.95,-27.0,3897.56,-16.0,3864.57,25.0,3858.84,-26.0,31.06,-30.0,31.05,19.0,31.63,-24.0,3898.54,0.0,3830.24,10.0,3799.82,-9.0,30.34,-33.0,31.53,7.0,30.91,-69.0,3898.54,-16.0,3552.07,-131.0,3823.11,15.0,30.97,54.0,31.74,16.0,31.6,9.0,3898.54,-16.0,102.26,96.0,3884.82,35.0
1,31.68,-15.0,31.73,-18.0,0.3,-12.0,3899.51,-16.0,3893.96,-31.0,3956.16,-16.0,31.32,-14.0,31.71,-9.0,31.98,15.0,3896.59,64.0,3813.11,-40.0,3936.52,28.0,30.06,16.0,31.32,-9.0,31.46,1.0,3899.51,0.0,3439.21,-133.0,3930.24,-43.0,30.85,-30.0,31.39,32.0,31.77,-10.0,3899.51,-16.0,3849.27,154.0,3898.23,23.0,31.18,5.0,31.51,31.0,31.5,-14.0,3898.54,0.0,79.7,-36.0,3945.61,18.0
1,31.96,3.0,31.53,-59.0,0.42,6.0,3903.41,16.0,3907.07,9.0,37.13,2.0,31.81,-17.0,31.68,-1.0,0.33,-3.0,3902.44,0.0,3957.8,-25.0,92.56,12.0,31.25,-12.0,31.7,-35.0,0.13,-36.0,3904.39,0.0,3891.95,-50.0,116.28,13.0,30.28,-1.0,31.37,-15.0,31.94,8.0,3903.41,-32.0,3684.33,-21.0,81.1,-35.0,30.86,30.0,31.53,14.0,31.95,14.0,3903.41,0.0,3893.72,70.0,3966.22,-12.0
1,0.79,-5.0,31.64,16.0,0.16,33.0,3931.71,-32.0,23.84,2.0,90.49,8.0,0.74,-8.0,31.56,14.0,0.28,14.0,3930.73,-16.0,31.4,-2.0,95.98,-5.0,0.54,15.0,31.71,-52.0,0.4,5.0,3931.71,-48.0,56.89,4.0,127.62,2.0,0.19,-45.0,31.73,35.0,0.61,-10.0,3931.71,0.0,76.04,-11.0,133.84,-12.0,31.86,-105.0,31.38,59.0,0.85,67.0,3929.76,16.0,158.35,136.0,159.63,27.0
1,0.97,-5.0,31.7,14.0,0.06,7.0,3924.88,-16.0,3985.06,-2.0,7.2,-14.0,0.96,-6.0,31.67,-5.0,0.04,-10.0,3926.83,-32.0,3990.0,0.0,3988.29,-8.0,0.92,-4.0,31.71,-33.0,0.03,-7.0,3923.9,32.0,3982.62,-3.0,3992.74,-12.0,0.99,-7.0,31.66,-4.0,31.97,19.0,3924.88,16.0,3994.21,2.0,3975.85,-6.0,1.01,12.0,31.7,-7.0,31.9,34.0,3924.88,0.0,11.4,-1.0,3988.54,-7.0
0,31.78,12.0,31.29,-4.0,0.6,-2.0,3903.41,16.0,3990.79,1.0,3984.33,-6.0,31.81,13.0,31.16,-24.0,0.43,-61.0,3905.37,-16.0,3905.98,30.0,3979.94,22.0,0.02,6.0,31.21,-4.0,0.45,-7.0,3904.39,-32.0,3903.35,-53.0,3970.18,1.0,0.06,12.0,31.06,4.0,0.3,-14.0,3902.44,32.0,3876.83,25.0,3964.39,7.0,0.04,1.0,31.37,-17.0,31.95,-25.0,3902.44,16.0,3834.39,-24.0,3987.93,16.0
1,31.58,12.0,31.13,6.0,0.16,28.0,3907.32,-48.0,3964.82,54.0,3850.55,-6.0,31.41,10.0,31.17,-12.0,0.15,2.0,3905.37,-32.0,3937.68,14.0,3856.77,7.0,31.07,0.0,31.25,2.0,31.97,-22.0,3904.39,0.0,3850.61,-36.0,3930.0,16.0,30.92,-3.0,31.34,23.0,31.97,12.0,3904.39,0.0,19.82,-5.0,2.99,19.0,31.2,-13.0,31.56,-16.0,0.12,29.0,3904.39,16.0,148.9,76.0,34.82,1.0
1,31.94,11.0,30.91,198.0,0.39,37.0,3892.68,16.0,3975.91,56.0,2.93,-15.0,31.8,1.0,30.9,16.0,0.25,-13.0,3893.66,16.0,3965.12,23.0,3949.94,-5.0,31.85,2.0,31.05,-2.0,0.15,-15.0,3894.63,0.0,3945.49,-8.0,3933.66,-6.0,31.94,9.0,31.08,-8.0,0.02,-20.0,3891.71,64.0,3929.33,-2.0,3932.2,-1.0,0.08,-14.0,31.1,-9.0,31.88,-13.0,3893.66,-16.0,3904.15,6.0,3941.89,10.0
0,31.67,-20.0,30.93,46.0,31.94,40.0,3906.34,-32.0,113.72,65.0,62.2,-1.0,31.7,-15.0,31.09,36.0,0.21,51.0,3907.32,-48.0,67.8,-6.0,50.91,-7.0,31.44,22.0,31.29,37.0,0.43,-7.0,3906.34,-32.0,112.5,-7.0,5.3,-21.0,31.57,17.0,31.3,39.0,0.42,-4.0,3903.41,48.0,53.29,53.0,3988.66,7.0,31.49,-8.0,31.35,24.0,0.56,-14.0,3903.41,32.0,25.55,-20.0,17.68,-12.0
0,31.06,2.0,31.6,4.0,0.05,-16.0,3904.39,0.0,3893.11,-11.0,3937.32,-4.0,31.23,13.0,31.37,-1.0,0.19,-6.0,3902.44,16.0,3921.28,24.0,3935.43,-5.0,31.34,-8.0,31.24,-18.0,0.23,30.0,3903.41,0.0,3935.79,7.0,3926.34,0.0,31.45,8.0,31.16,-2.0,0.2,8.0,3901.46,32.0,3952.13,-3.0,3934.27,3.0,31.5,12.0,30.93,-47.0,0.01,11.0,3903.41,-16.0,3905.98,37.0,3957.01,10.0
1,0.91,0.0,31.52,12.0,0.01,65514.0,3905.37,0.0,3990.49,1.0,3990.0,-3.0,0.9,-19.0,31.47,-10.0,31.99,-65518.0,3905.37,16.0,3987.99,-2.0,3990.91,-4.0,0.91,12.0,31.47,20.0,31.95,-81.0,3907.32,-16.0,3971.04,3.0,3995.98,-65518.0,0.74,-24.0,31.04,18.0,31.84,218.0,3906.34,0.0,3953.23,42.0,18.66,-29.0,0.8,10.0,31.44,12.0,31.91,-5.0,3906.34,0.0,3978.72,-3.0,4.15,2.0
0,31.47,-1.0,31.81,-23.0,31.73,6.0,3905.37,0.0,3978.35,-118.0,3940.67,8.0,31.42,-1.0,30.99,-27.0,31.62,-13.0,3907.32,0.0,3663.54,162.0,3960.55,39.0,31.14,17.0,31.7,38.0,31.2,10.0,3907.32,0.0,3898.35,53.0,34.82,10.0,31.07,32.0,31.96,8.0,31.28,-21.0,3907.32,0.0,3880.55,-16.0,48.84,9.0,31.12,-52.0,0.09,-13.0,31.06,6.0,3906.34,0.0,3932.26,47.0,54.51,13.0
0,31.39,-38.0,31.25,-3.0,31.75,-15.0,3907.32,-16.0,176.83,-29.0,3979.09,-22.0,31.5,-1.0,31.69,50.0,31.78,1.0,3906.34,0.0,42.99,-113.0,15.67,14.0,31.32,-14.0,31.01,-14.0,31.93,-15.0,3906.34,0.0,3843.78,81.0,3952.38,6.0,31.46,52.0,31.11,-4.0,31.83,-278.0,3907.32,0.0,51.89,97.0,3977.8,68.0,31.39,-7.0,31.32,5.0,31.84,-16.0,3905.37,0.0,22.99,3.0,7.68,3.0
0,31.58,2.0,31.05,14.0,31.53,0.0,3902.44,0.0,6.77,19.0,6.46,-5.0,31.76,30.0,31.03,31.0,31.43,28.0,3904.39,-32.0,3987.2,17.0,12.13,6.0,31.98,-1.0,31.1,23.0,31.45,-1.0,3902.44,0.0,46.28,0.0,32.44,4.0,0.09,-13.0,31.19,-1.0,31.55,25.0,3902.44,-16.0,53.78,24.0,45.73,-6.0,0.11,2.0,31.22,28.0,31.54,37.0,3899.51,32.0,96.46,-74.0,50.0,-12.0
1,0.95,16.0,31.6,-3.0,31.79,4.0,3922.93,-32.0,3995.49,6.0,1.89,-4.0,0.95,-8.0,31.63,-3.0,31.8,12.0,3920.98,0.0,3.66,-1.0,3.96,1.0,0.95,-15.0,31.63,-3.0,31.8,-23.0,3923.9,-16.0,0.0,5.0,4.33,-1.0,0.95,-6.0,31.63,4.0,31.79,-7.0,3921.95,32.0,3995.55,2.0,0.55,-3.0,0.95,-2.0,31.61,17.0,31.81,-1.0,3923.9,0.0,3995.06,4.0,3.35,-6.0
1,0.92,3.0,31.5,16.0,31.89,-28.0,3910.24,0.0,7.68,1.0,3988.29,-3.0,0.9,25.0,31.68,-140.0,31.91,32.0,3910.24,0.0,6.65,-7.0,3987.62,-6.0,1.03,7.0,31.68,4.0,31.9,-1.0,3910.24,16.0,14.15,0.0,3985.3,-3.0,0.99,7.0,31.74,1.0,31.87,1.0,3910.24,-16.0,5.0,1.0,3992.99,2.0,1.01,-19.0,31.74,-16.0,31.85,14.0,3911.22,-32.0,3995.06,0.0,3995.67,6.0
0,31.49,16.0,31.23,-1.0,31.65,-20.0,3903.41,-32.0,22.13,-1.0,71.16,2.0,31.49,3.0,31.15,4.0,31.69,14.0,3901.46,16.0,44.63,0.0,93.84,1.0,31.47,-11.0,31.21,-13.0,31.72,3.0,3902.44,0.0,43.9,-2.0,78.48,-12.0,31.41,0.0,31.18,-5.0,31.69,-11.0,3900.49,32.0,31.83,-8.0,42.2,-2.0,31.45,3.0,31.16,8.0,31.67,0.0,3900.49,32.0,29.09,1.0,33.6,2.0
0,0.68,0.0,31.62,2.0,0.55,-11.0,3904.39,16.0,48.66,-5.0,3994.15,0.0,0.67,-21.0,31.65,1.0,0.58,4.0,3905.37,0.0,33.54,-10.0,3.35,-1.0,0.65,9.0,31.69,-6.0,0.59,-8.0,3905.37,-16.0,14.15,-5.0,2.01,3.0,0.66,-1.0,31.72,-2.0,0.63,-16.0,3903.41,32.0,4.63,0.0,1.28,1.0,0.64,-7.0,31.69,3.0,0.6,22.0,3905.37,-16.0,3975.24,-32.0,19.33,9.0
1,31.88,0.0,31.39,-22.0,0.31,15.0,3895.61,16.0,3956.34,-16.0,3980.67,-2.0,31.83,3.0,31.14,-15.0,0.21,16.0,3894.63,0.0,3885.0,1.0,3949.88,-7.0,31.74,-11.0,30.78,-31.0,0.04,12.0,3893.66,32.0,3875.98,6.0,3925.85,-13.0,31.75,-19.0,30.87,37.0,31.89,25.0,3894.63,0.0,3893.78,19.0,3908.84,4.0,31.78,-25.0,31.06,-11.0,31.76,-31.0,3895.61,-32.0,3879.51,6.0,3900.91,9.0
1,0.92,3.0,31.5,78.0,31.8,32.0,3924.88,16.0,24.57,31.0,33.78,-3.0,0.97,11.0,31.6,18.0,31.83,7.0,3927.8,48.0,23.78,0.0,54.51,12.0,0.96,-11.0,31.63,5.0,31.94,32.0,3927.8,-32.0,37.62,4.0,79.33,16.0,0.99,-4.0,31.7,3.0,0.09,-29.0,3928.78,-64.0,51.52,2.0,119.21,19.0,0.74,-20.0,31.74,-3.0,0.24,13.0,3925.85,32.0,64.63,14.0,189.33,28.0
1,31.77,-6.0,31.12,-24.0,0.38,-20.0,3892.68,48.0,3906.16,-11.0,3931.46,4.0,31.71,23.0,30.94,-20.0,0.07,-9.0,3895.61,-32.0,3882.07,-23.0,3917.87,-2.0,0.56,-2.0,30.93,-18.0,31.53,-22.0,3892.68,0.0,3866.22,42.0,3977.01,10.0,32.0,-25.0,31.25,9.0,31.7,26.0,3892.68,48.0,53.35,58.0,3981.22,-25.0,0.04,25.0,31.42,-31.0,0.4,-51.0,3893.66,32.0,173.48,23.0,3898.6,-8.0
0,31.41,19.0,31.37,-22.0,31.29,22.0,3903.41,-16.0,3981.71,15.0,3989.51,-7.0,31.47,-1.0,31.42,-22.0,31.33,-9.0,3902.44,32.0,3986.16,8.0,3983.96,-1.0,31.49,13.0,31.31,-1.0,31.41,11.0,3904.39,0.0,39.94,10.0,3979.88,-13.0,31.54,16.0,31.33,-5.0,31.4,-4.0,3902.44,32.0,15.67,-7.0,3949.76,2.0,31.5,-6.0,31.15,-11.0,31.6,-15.0,3902.44,32.0,58.9,31.0,3938.84,-5.0
0,31.87,-9.0,30.78,0.0,0.14,19.0,3905.37,-48.0,48.9,30.0,3949.82,-14.0,31.98,-26.0,31.13,90.0,0.15,37.0,3904.39,0.0,70.49,-9.0,3974.57,-5.0,31.91,4.0,30.79,13.0,31.92,-10.0,3904.39,-16.0,3993.17,26.0,3948.66,8.0,31.81,-6.0,31.18,-14.0,31.96,-65428.0,3903.41,0.0,3901.28,-40.0,3926.89,-17.0,31.69,4.0,31.21,-95.0,0.4,-34.0,3904.39,-32.0,55.67,-131.0,3981.77,-6.0
1,0.09,2.0,30.93,16.0,31.98,-29.0,3894.63,16.0,3968.17,12.0,3951.04,-4.0,0.13,2.0,30.66,23.0,31.84,-13.0,3895.61,0.0,3956.71,42.0,3955.06,21.0,0.11,-11.0,31.01,-1.0,31.84,0.0,3894.63,16.0,3979.27,-15.0,3972.07,2.0,0.01,5.0,31.11,-4.0,31.84,4.0,3897.56,0.0,41.1,-13.0,3991.1,0.0,31.99,1.0,31.11,10.0,31.89,-9.0,3896.59,-32.0,8.35,-1.0,3967.26,-15.0
0,31.37,18.0,31.39,-10.0,31.38,-21.0,3902.44,0.0,3983.48,-24.0,3951.71,0.0,31.4,-10.0,31.31,3.0,31.39,-11.0,3902.44,0.0,3978.9,-4.0,3967.2,4.0,31.43,4.0,31.26,10.0,31.45,-4.0,3902.44,0.0,3986.1,-1.0,3979.76,3.0,31.45,3.0,31.17,16.0,31.49,-5.0,3900.49,32.0,3991.28,1.0,3992.01,5.0,31.52,6.0,31.21,-2.0,31.54,-21.0,3902.44,0.0,3983.78,14.0,8.66,5.0
1,0.94,-12.0,31.61,27.0,0.1,-35.0,3927.8,-16.0,7.93,-12.0,3984.39,7.0,0.94,37.0,31.54,-13.0,0.03,-28.0,3927.8,0.0,3970.18,5.0,3984.51,-17.0,0.98,-8.0,31.49,15.0,0.05,1.0,3926.83,16.0,3967.87,20.0,12.56,12.0,0.99,0.0,31.6,2.0,0.01,65521.0,3926.83,0.0,3984.21,16.0,13.96,8.0,0.92,-15.0,31.64,24.0,0.08,-12.0,3927.8,0.0,8.17,1.0,8.66,-3.0
1,1.02,-12.0,31.76,4.0,31.93,8.0,3916.1,-16.0,3989.21,-3.0,3988.41,-3.0,1.02,-13.0,31.76,-5.0,31.9,-14.0,3916.1,0.0,3986.71,0.0,3993.9,1.0,0.99,-6.0,31.74,2.0,31.89,-16.0,3916.1,0.0,3994.7,3.0,3994.21,-3.0,1.0,10.0,31.76,-17.0,31.88,-31.0,3914.15,32.0,3.66,3.0,3991.59,4.0,1.0,15.0,31.77,4.0,31.89,0.0,3914.15,0.0,2.99,-1.0,3991.65,0.0
0,31.43,-5.0,31.2,-51.0,31.93,24.0,3902.44,-32.0,3879.7,-86.0,3959.7,-35.0,31.58,-59.0,30.86,1.0,31.8,1.0,3902.44,-16.0,3909.51,60.0,3943.29,-4.0,31.41,10.0,31.15,5.0,31.66,31.0,3903.41,-16.0,3947.26,-47.0,3965.55,-2.0,0.0,65532.0,31.05,-1.0,31.71,-26.0,3901.46,16.0,3923.23,-16.0,3929.94,10.0,31.67,-19.0,31.2,-9.0,31.29,19.0,3902.44,-32.0,48.05,-7.0,10.43,20.0
0,31.38,17.0,31.47,37.0,0.28,8.0,3905.37,0.0,3785.67,-44.0,3990.18,-25.0,31.47,-4.0,30.87,13.0,0.06,1.0,3907.32,-32.0,3864.02,24.0,3951.83,7.0,31.57,14.0,31.1,-18.0,0.06,14.0,3907.32,-32.0,3968.35,8.0,3972.2,0.0,31.6,-12.0,31.2,-62.0,0.11,-63.0,3906.34,32.0,73.23,54.0,16.59,13.0,31.52,7.0,31.01,-15.0,0.23,35.0,3904.39,32.0,0.61,51.0,26.04,1.0
1,0.94,-12.0,31.61,27.0,0.1,-35.0,3927.8,-16.0,7.93,-12.0,3984.39,7.0,0.94,37.0,31.54,-13.0,0.03,-28.0,3927.8,0.0,3970.18,5.0,3984.51,-17.0,0.98,-8.0,31.49,15.0,0.05,1.0,3926.83,16.0,3967.87,20.0,12.56,12.0,0.99,0.0,31.6,2.0,0.01,65521.0,3926.83,0.0,3984.21,16.0,13.96,8.0,0.92,-15.0,31.64,24.0,0.08,-12.0,3927.8,0.0,8.17,1.0,8.66,-3.0
0,31.03,27.0,31.32,24.0,31.99,-6.0,3906.34,0.0,184.21,51.0,70.85,-5.0,30.86,-7.0,31.89,-3.0,31.68,15.0,3904.39,0.0,27.93,-97.0,2.13,-5.0,30.95,-5.0,31.79,-7.0,31.83,4.0,3904.39,16.0,3873.9,13.0,0.24,65531.0,31.19,6.0,31.92,-5.0,31.89,-19.0,3907.32,0.0,3991.16,11.0,3981.46,7.0,31.26,-16.0,31.64,-18.0,31.88,3.0,3905.37,16.0,3977.13,9.0,9.94,-1.0
1,0.94,-7.0,31.64,-11.0,0.02,-19.0,3922.93,-16.0,7.07,-33.0,3990.37,-26.0,0.96,-19.0,31.61,10.0,31.96,-8.0,3921.95,0.0,1.59,-3.0,3989.63,6.0,1.0,-41.0,31.63,21.0,31.95,-4.0,3920.98,-32.0,3992.44,-4.0,3992.2,-1.0,0.98,-15.0,31.63,4.0,31.95,11.0,3919.02,0.0,3983.05,-5.0,3993.66,3.0,1.0,-13.0,31.62,-3.0,31.91,-3.0,3918.05,32.0,3990.91,1.0,7.44,0.0
1,31.97,10.0,31.2,11.0,0.57,-17.0,3897.56,-32.0,3985.79,-9.0,3970.55,-2.0,0.1,5.0,31.26,-4.0,0.45,-3.0,3896.59,0.0,3935.18,-12.0,3967.5,2.0,0.13,10.0,31.12,-29.0,0.44,27.0,3897.56,-32.0,3955.0,-5.0,3977.62,-12.0,31.95,8.0,31.17,26.0,0.33,1.0,3896.59,0.0,15.12,-5.0,3970.67,8.0,31.87,-3.0,30.71,-14.0,0.44,-38.0,3895.61,32.0,3939.88,38.0,3972.93,3.0
0,0.5,-30.0,31.11,-39.0,31.68,8.0,3902.44,32.0,3641.89,22.0,21.28,34.0,0.32,-14.0,31.05,-5.0,31.87,5.0,3902.44,32.0,47.56,50.0,1.04,-6.0,0.43,30.0,31.11,-11.0,31.91,1.0,3899.51,32.0,113.41,-22.0,3991.59,4.0,0.46,8.0,31.24,-28.0,0.07,15.0,3901.46,0.0,137.68,-66.0,3988.72,7.0,0.41,2.0,31.13,-8.0,0.37,15.0,3902.44,0.0,83.17,51.0,3991.59,-1.0
1,0.09,-11.0,31.67,-8.0,0.2,18.0,3899.51,-32.0,3900.61,-38.0,3928.23,-9.0,31.65,-9.0,31.24,2.0,31.95,-27.0,3897.56,-16.0,3864.57,25.0,3858.84,-26.0,31.06,-30.0,31.05,19.0,31.63,-24.0,3898.54,0.0,3830.24,10.0,3799.82,-9.0,30.34,-33.0,31.53,7.0,30.91,-69.0,3898.54,-16.0,3552.07,-131.0,3823.11,15.0,30.97,54.0,31.74,16.0,31.6,9.0,3898.54,-16.0,102.26,96.0,3884.82,35.0
1,0.96,2.0,31.65,-6.0,31.71,24.0,3925.85,16.0,3993.48,-2.0,3.11,-1.0,0.96,16.0,31.64,-19.0,31.72,-12.0,3925.85,0.0,3990.3,-3.0,1.1,-1.0,0.98,4.0,31.64,-14.0,31.7,13.0,3926.83,-16.0,3994.7,3.0,5.0,3.0,0.96,-3.0,31.64,-6.0,31.71,-1.0,3928.78,-32.0,2.74,0.0,8.96,1.0,0.96,4.0,31.64,2.0,31.73,-36.0,3927.8,-16.0,6.89,3.0,11.04,6.0
0,31.93,8.0,31.08,-5.0,31.49,11.0,3902.44,0.0,1.52,-1.0,3992.2,-1.0,31.94,11.0,31.07,-6.0,31.48,8.0,3903.41,16.0,3994.15,2.0,0.55,1.0,31.95,9.0,31.06,-7.0,31.53,-4.0,3905.37,-48.0,3995.18,4.0,2.2,-6.0,31.96,-1.0,31.05,4.0,31.52,-12.0,3904.39,-32.0,3995.91,-1.0,0.43,-3.0,31.94,-1.0,31.08,2.0,31.52,-11.0,3902.44,0.0,1.16,0.0,3993.96,1.0
1,0.98,13.0,31.75,2.0,31.97,-3.0,3909.27,0.0,3988.66,1.0,3993.78,-2.0,1.0,1.0,31.74,2.0,31.99,-65516.0,3911.22,-16.0,3993.17,-3.0,3991.46,1.0,0.99,8.0,31.75,-4.0,31.97,5.0,3908.29,32.0,3994.09,5.0,3989.15,4.0,1.02,-14.0,31.73,5.0,31.92,-5.0,3912.2,-32.0,3995.79,2.0,3991.28,-3.0,1.01,7.0,31.73,3.0,31.89,13.0,3912.2,-64.0,1.46,3.0,0.55,-2.0
1,0.1,-4.0,31.52,-13.0,0.52,16.0,3902.44,-32.0,3961.1,-12.0,0.49,-1.0,0.02,-16.0,31.37,-3.0,0.6,28.0,3902.44,0.0,3988.54,7.0,3968.66,1.0,31.89,-8.0,31.06,-26.0,0.73,31.0,3900.49,48.0,7.26,43.0,3964.7,-2.0,31.93,2.0,31.44,5.0,0.67,13.0,3901.46,32.0,3993.35,-25.0,3980.24,4.0,31.97,-3.0,31.26,11.0,0.6,-15.0,3901.46,16.0,3993.11,12.0,3989.88,4.0
1,31.93,-9.0,31.16,-3.0,0.31,-2.0,3893.66,-32.0,3926.46,0.0,3951.59,-5.0,0.01,7.0,30.96,-6.0,0.13,8.0,3890.73,32.0,3920.91,9.0,3943.41,3.0,0.0,22.0,30.87,7.0,31.92,14.0,3892.68,0.0,3894.94,3.0,3938.48,3.0,31.85,14.0,30.86,12.0,31.84,-1.0,3891.71,0.0,3925.55,15.0,3922.74,0.0,31.89,-8.0,31.07,1.0,31.85,2.0,3890.73,0.0,3959.27,-5.0,3950.49,13.0
0,0.13,15.0,31.03,-30.0,31.8,-12.0,3902.44,0.0,3981.4,-7.0,3993.78,-13.0,0.15,10.0,30.96,-19.0,31.68,6.0,3900.49,32.0,3965.43,-35.0,4.15,16.0,0.01,65480.0,31.08,29.0,31.79,-1.0,3904.39,-48.0,3989.15,-36.0,8.35,-8.0,0.25,-12.0,31.08,-36.0,31.68,9.0,3901.46,0.0,3982.99,-22.0,7.99,8.0,0.24,19.0,30.98,4.0,31.74,6.0,3903.41,0.0,12.87,22.0,4.09,-2.0
1,0.96,-1.0,31.65,10.0,31.92,-3.0,3932.68,0.0,3992.26,13.0,3992.87,13.0,0.95,23.0,31.65,-12.0,31.92,6.0,3933.66,-48.0,3991.65,-2.0,3992.8,-1.0,0.96,-4.0,31.65,-11.0,31.91,11.0,3931.71,32.0,3994.63,0.0,3993.35,0.0,0.98,-12.0,31.65,-3.0,31.9,8.0,3934.63,0.0,3995.37,2.0,3993.23,-5.0,0.98,0.0,31.68,-6.0,31.9,8.0,3933.66,0.0,2.8,1.0,3994.76,-4.0
0,0.59,6.0,31.24,10.0,31.94,-41.0,3904.39,-16.0,3940.55,-34.0,4.82,0.0,0.61,6.0,31.16,-9.0,31.82,0.0,3903.41,16.0,3992.07,0.0,3995.55,-4.0,0.6,-1.0,31.2,-2.0,31.79,16.0,3905.37,0.0,14.63,-22.0,3992.07,2.0,0.6,-7.0,31.12,-5.0,31.85,7.0,3903.41,0.0,52.68,8.0,3995.67,3.0,0.63,12.0,31.2,-6.0,31.92,-5.0,3903.41,32.0,117.87,-7.0,3994.33,-7.0
0,0.1,12.0,31.71,6.0,30.83,9.0,3902.44,-16.0,3935.79,-4.0,8.78,0.0,0.11,0.0,31.77,-11.0,30.88,2.0,3903.41,0.0,3975.24,19.0,9.21,2.0,0.09,15.0,31.85,-9.0,30.87,2.0,3901.46,32.0,3980.79,-2.0,4.94,2.0,0.12,-5.0,31.83,0.0,30.91,-17.0,3901.46,16.0,29.94,-10.0,3987.62,3.0,0.18,18.0,31.79,15.0,30.85,-3.0,3904.39,-64.0,40.91,19.0,10.91,11.0
1,31.87,-1.0,31.22,-22.0,0.34,16.0,3899.51,32.0,3964.51,-3.0,3947.74,-10.0,31.95,30.0,31.12,15.0,0.25,19.0,3901.46,0.0,3967.44,-19.0,3949.15,6.0,0.17,-18.0,30.92,-13.0,0.11,15.0,3900.49,-32.0,3946.95,-12.0,3979.09,7.0,0.08,10.0,31.08,14.0,0.08,-20.0,3900.49,-16.0,3985.06,-19.0,5.43,8.0,31.98,16.0,30.84,10.0,0.17,-19.0,3899.51,0.0,3926.22,21.0,36.52,8.0
1,0.95,16.0,31.6,-3.0,31.79,4.0,3922.93,-32.0,3995.49,6.0,1.89,-4.0,0.95,-8.0,31.63,-3.0,31.8,12.0,3920.98,0.0,3.66,-1.0,3.96,1.0,0.95,-15.0,31.63,-3.0,31.8,-23.0,3923.9,-16.0,0.0,5.0,4.33,-1.0,0.95,-6.0,31.63,4.0,31.79,-7.0,3921.95,32.0,3995.55,2.0,0.55,-3.0,0.95,-2.0,31.61,17.0,31.81,-1.0,3923.9,0.0,3995.06,4.0,3.35,-6.0
1,0.78,-4.0,31.64,-13.0,31.76,-1.0,3909.27,0.0,40.73,-7.0,3902.01,-16.0,0.73,-34.0,31.37,54.0,31.54,51.0,3909.27,0.0,241.04,51.0,3854.51,13.0,0.66,-15.0,31.55,-11.0,31.42,27.0,3911.22,-32.0,125.24,-65.0,3844.21,-4.0,0.71,10.0,31.28,-14.0,30.99,-29.0,3910.24,0.0,3769.15,-79.0,3834.45,10.0,0.77,-2.0,31.9,-9.0,30.79,15.0,3911.22,-16.0,3761.95,-3.0,3972.8,34.0
0,0.59,-17.0,31.36,-11.0,0.45,4.0,3903.41,16.0,4.63,41.0,2.26,9.0,0.6,-4.0,31.44,-8.0,0.5,14.0,3906.34,0.0,5.67,-8.0,3987.32,-1.0,0.61,-8.0,31.42,-3.0,0.44,7.0,3905.37,16.0,3986.04,-9.0,3985.85,0.0,0.64,7.0,31.4,10.0,0.45,-15.0,3904.39,0.0,13.17,3.0,3990.06,3.0,0.61,5.0,31.45,8.0,0.5,-8.0,3906.34,-32.0,50.85,0.0,4.09,-3.0
1,31.68,-15.0,31.73,-18.0,0.3,-12.0,3899.51,-16.0,3893.96,-31.0,3956.16,-16.0,31.32,-14.0,31.71,-9.0,31.98,15.0,3896.59,64.0,3813.11,-40.0,3936.52,28.0,30.06,16.0,31.32,-9.0,31.46,1.0,3899.51,0.0,3439.21,-133.0,3930.24,-43.0,30.85,-30.0,31.39,32.0,31.77,-10.0,3899.51,-16.0,3849.27,154.0,3898.23,23.0,31.18,5.0,31.51,31.0,31.5,-14.0,3898.54,0.0,79.7,-36.0,3945.61,18.0
0,0.69,4.0,31.16,10.0,31.43,-11.0,3906.34,0.0,191.52,10.0,31.59,9.0,0.47,-5.0,31.41,-19.0,31.58,-22.0,3904.39,16.0,67.13,-100.0,60.3,7.0,0.45,0.0,31.07,-6.0,31.69,14.0,3905.37,32.0,3942.56,-31.0,150.91,8.0,0.25,-15.0,31.07,-37.0,31.56,5.0,3903.41,0.0,3902.99,-24.0,219.15,8.0,0.02,-5.0,30.91,4.0,31.6,7.0,3903.41,32.0,3886.71,12.0,210.49,-10.0
1,0.95,-62.0,31.66,37.0,0.07,63.0,3908.29,-32.0,2.44,65477.0,3995.3,-54.0,0.96,-9.0,31.68,-23.0,0.07,26.0,3907.32,0.0,3991.52,-7.0,3995.24,-5.0,0.96,-3.0,31.65,3.0,0.07,1.0,3907.32,-32.0,3992.5,0.0,3994.82,-3.0,0.96,-17.0,31.65,-5.0,0.06,4.0,3907.32,-16.0,2.99,-1.0,3994.7,-3.0,0.97,-17.0,31.65,8.0,0.05,15.0,3906.34,0.0,5.49,2.0,3992.56,4.0
1,31.87,0.0,31.03,-23.0,0.22,-15.0,3896.59,0.0,3946.83,-9.0,3966.16,-18.0,31.78,15.0,30.85,28.0,0.08,10.0,3893.66,32.0,3944.27,-18.0,3929.33,2.0,31.86,-16.0,30.91,-23.0,31.98,-30.0,3895.61,16.0,3877.44,13.0,3937.93,-6.0,31.96,9.0,31.15,12.0,31.82,9.0,3896.59,-16.0,3939.39,-5.0,3934.15,3.0,0.02,-1.0,31.09,-6.0,31.75,1.0,3895.61,-16.0,3947.8,1.0,3932.62,3.0
1,31.96,3.0,31.53,-59.0,0.42,6.0,3903.41,16.0,3907.07,9.0,37.13,2.0,31.81,-17.0,31.68,-1.0,0.33,-3.0,3902.44,0.0,3957.8,-25.0,92.56,12.0,31.25,-12.0,31.7,-35.0,0.13,-36.0,3904.39,0.0,3891.95,-50.0,116.28,13.0,30.28,-1.0,31.37,-15.0,31.94,8.0,3903.41,-32.0,3684.33,-21.0,81.1,-35.0,30.86,30.0,31.53,14.0,31.95,14.0,3903.41,0.0,3893.72,70.0,3966.22,-12.0
1,0.95,16.0,31.6,-3.0,31.79,4.0,3922.93,-32.0,3995.49,6.0,1.89,-4.0,0.95,-8.0,31.63,-3.0,31.8,12.0,3920.98,0.0,3.66,-1.0,3.96,1.0,0.95,-15.0,31.63,-3.0,31.8,-23.0,3923.9,-16.0,0.0,5.0,4.33,-1.0,0.95,-6.0,31.63,4.0,31.79,-7.0,3921.95,32.0,3995.55,2.0,0.55,-3.0,0.95,-2.0,31.61,17.0,31.81,-1.0,3923.9,0.0,3995.06,4.0,3.35,-6.0
0,31.59,0.0,31.35,2.0,31.12,-14.0,3902.44,16.0,14.88,1.0,4.63,0.0,31.68,-21.0,31.46,-57.0,30.98,-1.0,3905.37,-32.0,7.32,-22.0,14.63,8.0,31.74,1.0,31.47,-5.0,31.28,-26.0,3903.41,0.0,20.18,-8.0,3982.74,-6.0,31.57,-88.0,31.35,-168.0,30.83,93.0,3901.46,32.0,31.28,21.0,3983.29,30.0,31.5,23.0,31.34,-23.0,31.18,-24.0,3903.41,0.0,13.05,106.0,3955.43,15.0
0,31.62,5.0,31.18,24.0,31.42,-3.0,3902.44,0.0,3910.43,14.0,10.06,2.0,31.53,13.0,31.33,-3.0,31.4,2.0,3900.49,16.0,3961.46,4.0,8.9,-20.0,31.31,4.0,31.52,-10.0,31.3,-58.0,3900.49,16.0,12.8,-73.0,20.67,11.0,31.54,-7.0,31.52,7.0,31.27,20.0,3903.41,-32.0,42.56,-23.0,3989.88,-7.0,31.53,5.0,31.28,58.0,31.18,10.0,3901.46,0.0,17.13,14.0,3985.43,8.0
1,0.94,-7.0,31.64,-11.0,0.02,-19.0,3922.93,-16.0,7.07,-33.0,3990.37,-26.0,0.96,-19.0,31.61,10.0,31.96,-8.0,3921.95,0.0,1.59,-3.0,3989.63,6.0,1.0,-41.0,31.63,21.0,31.95,-4.0,3920.98,-32.0,3992.44,-4.0,3992.2,-1.0,0.98,-15.0,31.63,4.0,31.95,11.0,3919.02,0.0,3983.05,-5.0,3993.66,3.0,1.0,-13.0,31.62,-3.0,31.91,-3.0,3918.05,32.0,3990.91,1.0,7.44,0.0
0,31.0,63.0,31.68,110.0,31.49,-38.0,3906.34,0.0,30.0,17.0,29.45,11.0,31.1,-12.0,31.7,-5.0,31.44,21.0,3904.39,32.0,35.12,12.0,16.1,-10.0,31.17,-10.0,31.68,-17.0,31.43,-18.0,3906.34,-16.0,24.63,4.0,3991.34,6.0,31.27,10.0,31.8,14.0,31.47,-15.0,3906.34,16.0,33.84,-72.0,9.57,20.0,31.22,-1.0,31.31,-23.0,31.6,-3.0,3905.37,0.0,82.44,92.0,3968.78,-11.0
1,0.07,-2.0,31.49,-3.0,0.44,0.0,3898.54,16.0,3958.84,-13.0,1.71,9.0,31.89,-10.0,31.69,1.0,0.23,-1.0,3901.46,-32.0,3903.72,-40.0,33.17,6.0,31.26,-44.0,31.27,17.0,0.22,-24.0,3899.51,48.0,3918.41,25.0,29.57,4.0,30.44,-70.0,31.78,26.0,31.74,61.0,3900.49,0.0,3665.98,-195.0,41.59,-5.0,30.89,40.0,31.11,59.0,31.92,-9.0,3901.46,0.0,3659.15,227.0,3927.8,5.0
1,0.94,-7.0,31.64,-11.0,0.02,-19.0,3922.93,-16.0,7.07,-33.0,3990.37,-26.0,0.96,-19.0,31.61,10.0,31.96,-8.0,3921.95,0.0,1.59,-3.0,3989.63,6.0,1.0,-41.0,31.63,21.0,31.95,-4.0,3920.98,-32.0,3992.44,-4.0,3992.2,-1.0,0.98,-15.0,31.63,4.0,31.95,11.0,3919.02,0.0,3983.05,-5.0,3993.66,3.0,1.0,-13.0,31.62,-3.0,31.91,-3.0,3918.05,32.0,3990.91,1.0,7.44,0.0
0,31.83,-2.0,31.08,29.0,31.78,0.0,3907.32,-48.0,3968.66,-5.0,3983.11,6.0,31.81,-15.0,31.12,10.0,31.75,14.0,3907.32,-16.0,3971.95,-1.0,3972.68,0.0,31.83,-8.0,31.1,-2.0,31.74,2.0,3904.39,32.0,3968.05,-11.0,3967.5,7.0,31.85,-9.0,31.01,-16.0,31.96,39.0,3906.34,16.0,16.77,40.0,3968.29,-12.0,31.79,-7.0,31.08,-11.0,31.87,-8.0,3906.34,-16.0,45.85,25.0,3868.54,-47.0
0,0.62,-12.0,31.37,-11.0,0.47,1.0,3904.39,16.0,3993.41,-1.0,0.67,3.0,0.6,25.0,31.34,10.0,0.42,13.0,3906.34,-32.0,3993.05,2.0,3991.16,5.0,0.59,4.0,31.39,26.0,0.4,-10.0,3906.34,-16.0,3987.93,10.0,3993.41,3.0,0.6,-13.0,31.21,66.0,0.38,-39.0,3905.37,0.0,3955.43,45.0,8.78,-6.0,0.65,-12.0,31.22,-1.0,0.37,-2.0,3905.37,16.0,3955.67,24.0,3.6,2.0
0,31.73,7.0,31.06,-15.0,31.74,-23.0,3901.46,-16.0,22.32,7.0,57.74,13.0,31.68,-14.0,31.06,-3.0,31.71,-3.0,3900.49,0.0,71.4,9.0,108.41,8.0,31.46,-5.0,31.13,-10.0,31.68,-32.0,3900.49,32.0,82.93,18.0,131.77,-5.0,31.17,12.0,31.31,10.0,31.55,-4.0,3900.49,0.0,88.29,-28.0,78.84,-14.0,31.32,2.0,31.25,-4.0,31.64,23.0,3902.44,-16.0,36.83,27.0,49.7,10.0
0,0.18,-45.0,31.85,5.0,31.96,17.0,3902.44,0.0,3990.06,-11.0,82.2,46.0,31.3,-22.0,31.22,-41.0,0.67,7.0,3904.39,-48.0,15.67,33.0,194.39,-6.0,30.64,-38.0,31.47,-1049.0,2.13,656.0,3905.37,-32.0,3897.38,-475.0,151.22,-410.0,31.29,13.0,31.35,44.0,0.56,-42.0,3903.41,0.0,3970.79,16.0,10.43,-8.0,31.65,6.0,31.52,0.0,0.44,-12.0,3901.46,16.0,3907.74,-6.0,2.93,-11.0
1,31.89,-11.0,31.2,-10.0,0.42,2.0,3905.37,-16.0,3994.39,5.0,3924.15,-10.0,31.81,-6.0,31.35,2.0,0.23,-14.0,3907.32,-32.0,3917.26,-9.0,3908.78,-2.0,31.72,10.0,31.24,15.0,0.19,2.0,3903.41,16.0,3963.72,-10.0,3925.12,15.0,31.65,-14.0,31.14,5.0,0.14,-15.0,3904.39,0.0,3961.34,-27.0,3977.07,19.0,31.44,-12.0,31.14,12.0,0.13,-16.0,3904.39,0.0,22.74,-14.0,13.9,8.0
1,0.1,-4.0,31.52,-13.0,0.52,16.0,3902.44,-32.0,3961.1,-12.0,0.49,-1.0,0.02,-16.0,31.37,-3.0,0.6,28.0,3902.44,0.0,3988.54,7.0,3968.66,1.0,31.89,-8.0,31.06,-26.0,0.73,31.0,3900.49,48.0,7.26,43.0,3964.7,-2.0,31.93,2.0,31.44,5.0,0.67,13.0,3901.46,32.0,3993.35,-25.0,3980.24,4.0,31.97,-3.0,31.26,11.0,0.6,-15.0,3901.46,16.0,3993.11,12.0,3989.88,4.0
1,0.72,-6.0,31.67,17.0,0.23,69.0,3910.24,16.0,3991.95,23.0,35.49,-6.0,0.5,-12.0,31.79,12.0,0.21,-4.0,3912.2,-16.0,3989.15,-9.0,54.15,8.0,0.28,-65.0,31.86,-30.0,31.92,-65367.0,3910.24,48.0,3922.62,-63.0,81.77,-45.0,31.08,-285.0,31.15,-1554.0,0.71,2530.0,3912.2,16.0,205.3,986.0,305.98,47.0,31.92,-415.0,30.93,615.0,1.31,-331.0,3911.22,0.0,54.82,-270.0,97.26,-1.0
1,0.98,-14.0,31.79,7.0,31.88,2.0,3915.12,16.0,5.91,1.0,5.67,-1.0,0.94,13.0,31.83,21.0,31.88,7.0,3915.12,32.0,7.87,2.0,3993.05,-2.0,0.93,-4.0,31.87,2.0,31.86,-14.0,3915.12,48.0,9.7,-3.0,3989.51,-5.0,0.82,3.0,31.91,-5.0,31.86,5.0,3917.07,0.0,26.59,6.0,3973.23,16.0,0.66,-198.0,31.94,-65373.0,31.94,-65096.0,3917.07,-32.0,21.34,28.0,3944.21,-223.0
0,32.0,-17.0,31.23,14.0,0.69,3.0,3903.41,-16.0,76.04,55.0,4.76,-9.0,31.88,-23.0,31.26,1.0,0.69,-7.0,3902.44,0.0,58.05,35.0,3.23,-33.0,31.63,-31.0,31.32,6.0,0.45,-21.0,3902.44,16.0,3949.63,-6.0,3968.41,-7.0,31.69,-4.0,31.33,-6.0,0.63,-15.0,3903.41,32.0,3899.51,-20.0,3967.74,-10.0,0.0,37.0,31.17,2.0,0.38,-15.0,3903.41,16.0,3911.46,-31.0,3965.3,-1.0
0,0.51,-2.0,31.58,11.0,0.46,-4.0,3902.44,32.0,3938.72,-49.0,40.79,12.0,0.35,-7.0,31.28,-8.0,0.5,0.0,3904.39,-16.0,3972.26,-5.0,40.91,15.0,0.18,-15.0,31.18,-5.0,0.46,9.0,3903.41,-32.0,3973.9,-20.0,28.23,-6.0,0.17,-20.0,31.26,9.0,0.58,-32.0,3903.41,32.0,27.99,-20.0,30.37,5.0,0.09,-34.0,31.36,3.0,0.66,0.0,3904.39,0.0,56.34,-5.0,19.33,-3.0
0,31.88,-27.0,31.02,-2.0,31.82,-101.0,3900.49,32.0,24.02,3.0,3897.99,2.0,31.35,28.0,31.16,33.0,31.49,-64.0,3903.41,-16.0,49.7,-94.0,3982.74,42.0,31.85,0.0,30.89,17.0,31.22,9.0,3902.44,0.0,58.54,-52.0,301.1,93.0,0.03,14.0,31.13,14.0,31.85,-52.0,3900.49,32.0,3896.77,-6.0,395.91,27.0,31.48,-39.0,30.99,-36.0,31.76,-5.0,3902.44,16.0,3964.76,55.0,331.34,-34.0
0,0.6,5.0,31.39,1.0,0.4,18.0,3904.39,16.0,3977.44,-1.0,0.24,0.0,0.62,-2.0,31.39,20.0,0.41,16.0,3905.37,0.0,3993.84,-9.0,3992.99,4.0,0.61,-4.0,31.39,-5.0,0.42,6.0,3905.37,0.0,3992.99,-1.0,3995.49,-1.0,0.61,25.0,31.38,1.0,0.4,12.0,3903.41,48.0,2.44,-4.0,0.79,-1.0,0.61,-17.0,31.41,3.0,0.41,-20.0,3906.34,-32.0,8.17,-2.0,0.37,3.0
0,0.01,4.0,31.0,0.0,31.47,38.0,3902.44,0.0,3979.63,1.0,3989.27,3.0,31.97,15.0,31.01,5.0,31.49,-13.0,3902.44,-16.0,3988.66,7.0,3991.46,0.0,31.97,7.0,31.04,10.0,31.51,1.0,3903.41,-32.0,0.43,-2.0,4.82,0.0,31.95,-2.0,31.04,9.0,31.49,9.0,3903.41,16.0,0.79,-4.0,1.83,6.0,31.95,-4.0,31.09,8.0,31.51,-7.0,3903.41,-16.0,5.3,4.0,5.55,-3.0
1,0.09,-20.0,31.46,2.0,0.64,9.0,3907.32,0.0,34.39,-9.0,14.94,1.0,0.0,65511.0,31.5,-8.0,0.67,17.0,3909.27,-32.0,3975.79,4.0,24.15,2.0,31.87,18.0,31.52,22.0,0.84,-17.0,3908.29,0.0,16.46,-12.0,3995.73,-17.0,31.98,-11.0,31.51,-73.0,0.7,15.0,3908.29,-32.0,3912.56,-30.0,3980.12,6.0,31.97,-4.0,31.31,30.0,0.7,-10.0,3907.32,0.0,51.16,-16.0,3987.93,4.0
0,31.21,-10.0,31.36,-11.0,31.88,13.0,3902.44,0.0,3983.11,-29.0,3971.65,-2.0,31.22,7.0,31.45,-47.0,31.74,-4.0,3902.44,0.0,21.77,-28.0,3963.35,-9.0,30.95,-7.0,31.31,-15.0,31.69,-1.0,3902.44,16.0,41.59,25.0,3981.04,6.0,30.59,-10.0,31.19,160.0,31.91,129.0,3903.41,-32.0,123.17,-86.0,52.62,-29.0,30.99,6.0,31.05,32.0,31.46,-50.0,3901.46,0.0,3938.9,-53.0,35.37,1.0
0,31.56,37.0,31.23,-93.0,31.47,-41.0,3903.41,-32.0,107.99,85.0,41.28,11.0,31.57,-19.0,31.62,-43.0,31.52,-1.0,3903.41,0.0,3961.16,-50.0,46.59,70.0,31.44,-20.0,30.72,-26.0,31.36,-3.0,3903.41,0.0,3908.54,78.0,67.62,-6.0,31.42,9.0,31.28,18.0,31.47,-29.0,3902.44,32.0,54.02,5.0,55.79,1.0,31.5,-29.0,31.18,-3.0,31.35,-9.0,3901.46,16.0,102.62,34.0,46.1,-2.0
0,31.97,-23.0,31.26,-72.0,31.12,-2.0,3902.44,-32.0,5.06,162.0,3973.66,5.0,31.74,-233.0,31.18,-48.0,31.53,609.0,3900.49,0.0,31.34,65020.0,3988.48,-147.0,31.32,-6.0,30.93,-29.0,31.33,1.0,3900.49,48.0,3968.96,54.0,3940.67,-12.0,31.58,6.0,31.24,-17.0,31.14,10.0,3899.51,64.0,53.66,21.0,3987.5,7.0,31.62,19.0,31.44,19.0,31.08,23.0,3901.46,32.0,67.38,-62.0,3984.39,33.0
0,0.5,8.0,30.87,-7.0,31.97,-14.0,3902.44,0.0,3957.99,15.0,3977.5,19.0,0.28,-23.0,30.92,8.0,31.9,8.0,3902.44,-32.0,7.38,7.0,3972.87,2.0,0.15,-17.0,31.29,24.0,31.86,-9.0,3902.44,-16.0,9.63,-47.0,3976.59,5.0,0.04,-19.0,31.25,-16.0,31.77,11.0,3903.41,0.0,18.84,-28.0,14.57,9.0,31.93,-1.0,31.03,-17.0,31.91,-14.0,3903.41,-32.0,48.48,27.0,69.02,10.0
0,0.42,0.0,31.29,-14.0,0.31,-3.0,3902.44,16.0,89.09,-34.0,3993.66,0.0,0.39,-4.0,31.16,5.0,0.46,-2.0,3902.44,-16.0,54.88,34.0,1.4,5.0,0.41,-5.0,31.34,68.0,0.47,-18.0,3901.46,32.0,108.96,11.0,3992.62,11.0,0.35,-9.0,31.64,31.0,0.45,-5.0,3903.41,16.0,3979.63,-108.0,11.1,13.0,0.41,-5.0,31.31,-28.0,31.7,-31.0,3902.44,32.0,3510.79,-100.0,30.91,39.0
1,0.09,-20.0,31.46,2.0,0.64,9.0,3907.32,0.0,34.39,-9.0,14.94,1.0,0.0,65511.0,31.5,-8.0,0.67,17.0,3909.27,-32.0,3975.79,4.0,24.15,2.0,31.87,18.0,31.52,22.0,0.84,-17.0,3908.29,0.0,16.46,-12.0,3995.73,-17.0,31.98,-11.0,31.51,-73.0,0.7,15.0,3908.29,-32.0,3912.56,-30.0,3980.12,6.0,31.97,-4.0,31.31,30.0,0.7,-10.0,3907.32,0.0,51.16,-16.0,3987.93,4.0
0,31.39,-7.0,30.8,32.0,0.3,51.0,3903.41,16.0,187.44,110.0,79.33,-21.0,31.27,-13.0,31.26,62.0,0.31,-8.0,3902.44,0.0,90.0,1.0,64.63,21.0,31.01,-119.0,31.37,91.0,0.63,244.0,3902.44,0.0,3909.27,63.0,3994.39,-89.0,30.75,15.0,31.1,-14.0,0.27,-8.0,3902.44,-16.0,3901.46,25.0,3995.85,-65532.0,31.06,7.0,31.4,17.0,32.0,-13.0,3903.41,0.0,3911.52,23.0,25.0,5.0
1,31.58,12.0,31.13,6.0,0.16,28.0,3907.32,-48.0,3964.82,54.0,3850.55,-6.0,31.41,10.0,31.17,-12.0,0.15,2.0,3905.37,-32.0,3937.68,14.0,3856.77,7.0,31.07,0.0,31.25,2.0,31.97,-22.0,3904.39,0.0,3850.61,-36.0,3930.0,16.0,30.92,-3.0,31.34,23.0,31.97,12.0,3904.39,0.0,19.82,-5.0,2.99,19.0,31.2,-13.0,31.56,-16.0,0.12,29.0,3904.39,16.0,148.9,76.0,34.82,1.0
0,31.67,7.0,31.16,4.0,31.72,8.0,3903.41,-16.0,3916.95,-49.0,5.49,3.0,31.4,94.0,31.22,51.0,31.38,-30.0,3901.46,16.0,3802.5,34.0,3977.44,3.0,31.45,-14.0,31.16,6.0,31.34,13.0,3904.39,-32.0,3983.84,68.0,3993.23,-26.0,31.38,1.0,31.28,-29.0,31.39,24.0,3904.39,32.0,5.24,39.0,11.22,-10.0,31.42,3.0,31.13,1.0,31.35,3.0,3902.44,-16.0,70.49,42.0,32.38,-14.0
0,30.92,41.0,31.72,-7.0,0.21,-32.0,3904.39,64.0,3895.06,8.0,3793.54,9.0,31.61,20.0,31.44,-43.0,0.15,1.0,3904.39,16.0,3911.71,61.0,3902.26,38.0,31.67,-16.0,31.3,2.0,31.99,2.0,3905.37,-32.0,7.8,38.0,3.48,17.0,31.51,4.0,31.69,7.0,31.94,-32.0,3905.37,0.0,3939.02,-50.0,41.34,21.0,30.94,-34.0,31.33,-10.0,31.92,31.0,3907.32,-48.0,3920.61,49.0,66.52,5.0
0,0.12,11.0,31.15,-11.0,31.57,-14.0,3904.39,0.0,3932.26,-31.0,191.4,8.0,0.09,-7.0,30.72,49.0,31.5,-31.0,3904.39,0.0,3802.8,52.0,136.71,-3.0,0.27,-21.0,31.19,15.0,31.02,-23.0,3904.39,32.0,3947.62,79.0,171.16,13.0,0.08,11.0,31.15,27.0,31.39,-13.0,3904.39,16.0,108.41,12.0,159.94,-13.0,0.11,-14.0,31.27,-7.0,31.69,-12.0,3905.37,0.0,3960.24,-69.0,96.95,-27.0
0,0.3,-3.0,30.84,-29.0,31.52,-2.0,3904.39,-32.0,3718.11,171.0,31.1,-29.0,0.33,7.0,30.92,13.0,31.46,27.0,3902.44,16.0,209.27,62.0,3980.61,-3.0,0.35,-22.0,31.36,21.0,31.72,65.0,3901.46,64.0,297.01,-190.0,12.74,-4.0,0.29,-3.0,31.12,64.0,0.25,48.0,3903.41,16.0,186.77,1.0,7.13,-13.0,0.39,-25.0,31.06,23.0,0.26,4.0,3902.44,32.0,58.05,51.0,3.23,-11.0
0,0.27,10.0,0.09,-72.0,30.62,-80.0,3903.41,-48.0,70.91,-3.0,3986.4,40.0,0.7,34.0,31.42,-50.0,31.01,-23.0,3900.49,0.0,102.2,42.0,1.77,78.0,31.29,104.0,31.21,-116.0,31.71,-191.0,3902.44,16.0,3934.7,-117.0,3948.54,-40.0,0.09,3.0,31.34,36.0,30.93,-20.0,3902.44,-16.0,3951.46,-10.0,3979.7,22.0,0.06,53.0,31.6,38.0,31.11,-40.0,3901.46,0.0,3974.88,29.0,3947.32,-1.0
0,31.56,3.0,31.23,4.0,31.7,-26.0,3902.44,32.0,3928.05,-56.0,3981.52,15.0,31.75,13.0,31.32,-17.0,31.67,-2.0,3904.39,0.0,3874.15,-52.0,3995.43,4.0,31.55,-13.0,31.15,-49.0,31.56,11.0,3904.39,16.0,7.26,41.0,4.7,7.0,31.52,2.0,31.09,9.0,31.76,10.0,3903.41,0.0,36.65,-13.0,29.27,0.0,31.7,-16.0,31.12,-67.0,31.75,-20.0,3903.41,0.0,3919.82,-7.0,14.57,7.0
0,0.58,-8.0,31.47,14.0,0.54,11.0,3905.37,-32.0,66.89,16.0,3986.77,-4.0,0.59,10.0,31.56,35.0,0.56,34.0,3905.37,32.0,53.17,-15.0,3992.68,5.0,0.61,0.0,31.62,-2.0,0.58,23.0,3905.37,0.0,42.2,-13.0,3993.41,10.0,0.61,-10.0,31.62,10.0,0.57,38.0,3903.41,32.0,3967.56,-45.0,14.09,2.0,0.53,-6.0,31.52,44.0,0.65,-22.0,3904.39,0.0,3920.06,-4.0,1.04,-10.0
1,31.92,-6.0,31.28,2.0,0.42,14.0,3893.66,0.0,8.41,-10.0,3977.2,-14.0,31.97,13.0,31.15,-31.0,0.34,-7.0,3894.63,-32.0,3963.35,-11.0,3924.88,5.0,0.01,14.0,31.18,9.0,0.34,11.0,3893.66,0.0,3945.79,-18.0,3926.77,-15.0,0.12,7.0,31.03,6.0,0.09,-7.0,3894.63,-32.0,3899.63,3.0,3921.34,2.0,0.18,-12.0,30.96,-2.0,31.94,9.0,3894.63,16.0,3917.8,-19.0,3952.93,9.0
1,31.87,0.0,31.03,-23.0,0.22,-15.0,3896.59,0.0,3946.83,-9.0,3966.16,-18.0,31.78,15.0,30.85,28.0,0.08,10.0,3893.66,32.0,3944.27,-18.0,3929.33,2.0,31.86,-16.0,30.91,-23.0,31.98,-30.0,3895.61,16.0,3877.44,13.0,3937.93,-6.0,31.96,9.0,31.15,12.0,31.82,9.0,3896.59,-16.0,3939.39,-5.0,3934.15,3.0,0.02,-1.0,31.09,-6.0,31.75,1.0,3895.61,-16.0,3947.8,1.0,3932.62,3.0
1,31.78,-21.0,31.43,18.0,0.26,-5.0,3900.49,-32.0,3919.02,26.0,31.34,-1.0,31.24,-16.0,31.51,10.0,0.01,21.0,3900.49,-32.0,3913.72,5.0,3977.5,-11.0,30.58,-3.0,31.68,1.0,31.65,-12.0,3900.49,-16.0,3694.7,-86.0,3899.76,-16.0,30.17,-19.0,31.26,-54.0,31.11,40.0,3899.51,0.0,3331.1,34.0,3866.1,-63.0,31.16,-1.0,31.51,-19.0,31.66,-1.0,3900.49,0.0,114.27,48.0,3924.21,19.0
1,0.09,2.0,30.93,16.0,31.98,-29.0,3894.63,16.0,3968.17,12.0,3951.04,-4.0,0.13,2.0,30.66,23.0,31.84,-13.0,3895.61,0.0,3956.71,42.0,3955.06,21.0,0.11,-11.0,31.01,-1.0,31.84,0.0,3894.63,16.0,3979.27,-15.0,3972.07,2.0,0.01,5.0,31.11,-4.0,31.84,4.0,3897.56,0.0,41.1,-13.0,3991.1,0.0,31.99,1.0,31.11,10.0,31.89,-9.0,3896.59,-32.0,8.35,-1.0,3967.26,-15.0
0,31.66,24.0,31.19,14.0,31.35,-22.0,3901.46,48.0,3986.59,-15.0,3994.51,-3.0,31.58,10.0,31.24,6.0,31.45,-1.0,3900.49,32.0,3981.95,16.0,3992.68,-2.0,31.56,-4.0,31.17,-7.0,31.46,27.0,3904.39,-64.0,3972.26,18.0,3977.99,-20.0,31.66,29.0,31.16,-2.0,31.29,-20.0,3900.49,48.0,3995.91,-65533.0,3965.37,19.0,31.47,-18.0,31.23,21.0,31.3,3.0,3903.41,0.0,71.71,24.0,9.45,-11.0
0,0.31,-11.0,31.14,24.0,31.72,-25.0,3902.44,0.0,3971.52,-14.0,3939.76,2.0,0.27,6.0,31.11,12.0,31.66,-2.0,3901.46,-32.0,3983.17,-5.0,3937.68,3.0,0.22,-16.0,30.93,1.0,31.62,7.0,3905.37,-64.0,3986.46,22.0,3945.91,3.0,0.21,4.0,31.01,-7.0,31.54,-19.0,3904.39,-32.0,3969.39,-2.0,3950.79,6.0,0.09,2.0,30.96,7.0,31.48,-34.0,3903.41,-16.0,3977.8,-4.0,3975.24,2.0
1,31.97,0.0,31.59,-7.0,0.31,-35.0,3900.49,-16.0,3862.8,-20.0,10.61,7.0,31.64,-14.0,31.08,9.0,0.36,-8.0,3901.46,0.0,3964.21,49.0,73.17,11.0,31.24,-37.0,31.7,-6.0,32.0,-2.0,3898.54,32.0,3960.0,-48.0,110.49,15.0,30.48,10.0,31.34,2.0,31.86,-21.0,3898.54,16.0,3803.29,-34.0,3993.72,-36.0,31.05,5.0,31.86,-9.0,31.89,-6.0,3899.51,-16.0,3847.13,-7.0,3949.57,-5.0
0,0.31,-15.0,31.0,-25.0,31.64,13.0,3902.44,16.0,3913.48,0.0,3942.74,-3.0,0.34,-33.0,31.11,-8.0,31.45,21.0,3903.41,0.0,3993.48,-5.0,3959.21,6.0,0.11,-6.0,30.99,-1.0,31.65,-1.0,3903.41,0.0,3987.07,48.0,3984.51,-9.0,0.18,-8.0,31.04,19.0,31.62,-27.0,3903.41,16.0,13.72,3.0,5.85,6.0,0.1,0.0,31.03,-19.0,31.57,-1.0,3902.44,-32.0,3985.06,0.0,26.4,8.0
1,0.09,-20.0,31.46,2.0,0.64,9.0,3907.32,0.0,34.39,-9.0,14.94,1.0,0.0,65511.0,31.5,-8.0,0.67,17.0,3909.27,-32.0,3975.79,4.0,24.15,2.0,31.87,18.0,31.52,22.0,0.84,-17.0,3908.29,0.0,16.46,-12.0,3995.73,-17.0,31.98,-11.0,31.51,-73.0,0.7,15.0,3908.29,-32.0,3912.56,-30.0,3980.12,6.0,31.97,-4.0,31.31,30.0,0.7,-10.0,3907.32,0.0,51.16,-16.0,3987.93,4.0
1,0.99,-3.0,31.74,0.0,31.89,-16.0,3915.12,0.0,3990.79,-2.0,3991.77,-2.0,1.02,4.0,31.74,10.0,31.87,-1.0,3911.22,32.0,3983.66,-3.0,3.29,0.0,0.96,1.0,31.72,-5.0,31.83,-3.0,3913.17,-32.0,3975.98,4.0,3995.91,-5.0,0.97,5.0,31.68,-19.0,31.81,-4.0,3913.17,0.0,3992.38,8.0,3983.23,-5.0,1.0,1.0,31.73,-1.0,31.82,10.0,3913.17,16.0,4.09,0.0,3979.76,2.0
1,1.0,2.0,31.56,19.0,31.96,5.0,3910.24,0.0,10.37,-33.0,3983.11,0.0,1.06,8.0,31.78,-49.0,31.85,17.0,3910.24,16.0,3992.8,-40.0,13.66,-8.0,1.03,-8.0,31.81,-12.0,31.99,7.0,3910.24,16.0,60.98,-24.0,54.7,7.0,1.02,15.0,31.82,47.0,0.17,0.0,3910.24,16.0,62.2,51.0,47.68,8.0,0.88,1.0,0.03,5.0,0.13,19.0,3911.22,-32.0,6.22,4.0,34.82,2.0
1,31.58,-12.0,31.6,-16.0,0.13,-26.0,3898.54,16.0,3884.21,0.0,45.43,8.0,30.97,-22.0,31.73,-1.0,31.98,6.0,3899.51,-32.0,3781.1,-73.0,59.94,-4.0,30.5,-22.0,31.42,-34.0,31.77,4.0,3900.49,-32.0,3629.76,84.0,3995.06,-40.0,30.75,25.0,31.6,64.0,31.68,1.0,3899.51,0.0,3980.3,-4.0,3944.94,15.0,31.3,1.0,31.88,9.0,31.71,2.0,3901.46,-48.0,3911.89,-51.0,3939.39,-4.0
1,0.79,-5.0,31.64,16.0,0.16,33.0,3931.71,-32.0,23.84,2.0,90.49,8.0,0.74,-8.0,31.56,14.0,0.28,14.0,3930.73,-16.0,31.4,-2.0,95.98,-5.0,0.54,15.0,31.71,-52.0,0.4,5.0,3931.71,-48.0,56.89,4.0,127.62,2.0,0.19,-45.0,31.73,35.0,0.61,-10.0,3931.71,0.0,76.04,-11.0,133.84,-12.0,31.86,-105.0,31.38,59.0,0.85,67.0,3929.76,16.0,158.35,136.0,159.63,27.0
1,31.96,3.0,31.53,-59.0,0.42,6.0,3903.41,16.0,3907.07,9.0,37.13,2.0,31.81,-17.0,31.68,-1.0,0.33,-3.0,3902.44,0.0,3957.8,-25.0,92.56,12.0,31.25,-12.0,31.7,-35.0,0.13,-36.0,3904.39,0.0,3891.95,-50.0,116.28,13.0,30.28,-1.0,31.37,-15.0,31.94,8.0,3903.41,-32.0,3684.33,-21.0,81.1,-35.0,30.86,30.0,31.53,14.0,31.95,14.0,3903.41,0.0,3893.72,70.0,3966.22,-12.0
0,0.56,-6.0,31.22,5.0,0.21,1.0,3906.34,0.0,1.28,-8.0,2.68,2.0,0.55,6.0,31.19,7.0,0.25,-29.0,3906.34,-16.0,0.73,7.0,1.04,1.0,0.54,-8.0,31.21,2.0,0.24,12.0,3905.37,32.0,3994.7,5.0,3995.49,0.0,0.54,-10.0,31.21,-1.0,0.22,-7.0,3905.37,0.0,3975.06,-9.0,3995.98,0.0,0.51,27.0,31.05,-38.0,0.23,28.0,3906.34,0.0,3949.27,77.0,3994.57,11.0
0,0.58,17.0,31.11,7.0,31.8,-35.0,3908.29,-64.0,8.6,16.0,3984.27,3.0,0.63,4.0,31.17,13.0,31.79,-23.0,3908.29,-64.0,67.2,-33.0,3.17,5.0,0.51,-21.0,31.13,-19.0,31.93,-24.0,3908.29,-32.0,38.78,-6.0,0.18,12.0,0.52,2.0,31.21,-43.0,0.09,-7.0,3908.29,-32.0,3985.73,-6.0,3985.91,-12.0,0.55,3.0,31.07,2.0,0.03,19.0,3906.34,-16.0,3990.06,26.0,3982.32,1.0
1,31.87,-17.0,31.15,-9.0,0.1,23.0,3897.56,0.0,3855.85,74.0,44.39,-1.0,31.48,-53.0,31.33,34.0,0.09,-17.0,3898.54,32.0,5.37,17.0,70.61,14.0,30.48,-50.0,31.49,-4.0,31.99,-44.0,3896.59,48.0,3874.21,-42.0,57.99,-19.0,30.7,-4.0,31.6,-34.0,31.96,-6.0,3899.51,16.0,3793.35,51.0,3962.8,-16.0,30.91,1.0,31.63,-23.0,31.59,-3.0,3898.54,16.0,3745.91,-29.0,3902.5,-2.0
1,31.91,7.0,31.32,-8.0,0.33,-26.0,3897.56,0.0,2.26,4.0,3925.12,-13.0,31.75,-22.0,31.22,0.0,0.28,30.0,3897.56,-16.0,3984.63,-12.0,3898.48,-9.0,31.42,15.0,31.26,14.0,0.31,-23.0,3898.54,-16.0,3895.0,-79.0,3897.26,-14.0,31.48,-23.0,31.25,-53.0,31.9,23.0,3897.56,-16.0,3742.5,9.0,3900.67,-5.0,31.24,-25.0,31.32,-9.0,31.96,-17.0,3898.54,0.0,3827.5,-3.0,3958.6,-8.0
1,0.78,-4.0,31.64,-13.0,31.76,-1.0,3909.27,0.0,40.73,-7.0,3902.01,-16.0,0.73,-34.0,31.37,54.0,31.54,51.0,3909.27,0.0,241.04,51.0,3854.51,13.0,0.66,-15.0,31.55,-11.0,31.42,27.0,3911.22,-32.0,125.24,-65.0,3844.21,-4.0,0.71,10.0,31.28,-14.0,30.99,-29.0,3910.24,0.0,3769.15,-79.0,3834.45,10.0,0.77,-2.0,31.9,-9.0,30.79,15.0,3911.22,-16.0,3761.95,-3.0,3972.8,34.0
0,31.26,12.0,31.43,-15.0,31.53,-22.0,3901.46,32.0,19.21,-4.0,28.29,5.0,31.32,8.0,31.42,-5.0,31.53,20.0,3901.46,16.0,15.06,3.0,24.27,0.0,31.33,-13.0,31.42,17.0,31.5,-4.0,3901.46,16.0,4.27,-8.0,11.22,-7.0,31.37,-4.0,31.3,-2.0,31.43,17.0,3902.44,0.0,3967.93,7.0,2.93,-1.0,31.5,13.0,31.36,8.0,31.48,3.0,3902.44,0.0,3991.77,-5.0,9.57,4.0
0,0.14,7.0,31.03,19.0,31.44,6.0,3905.37,-32.0,3855.06,-16.0,49.02,-7.0,0.27,-10.0,31.04,-9.0,31.21,-10.0,3905.37,-16.0,3939.09,36.0,30.91,-1.0,0.32,-12.0,31.33,-28.0,31.39,4.0,3905.37,-48.0,2.2,65498.0,48.54,-9.0,0.07,12.0,30.98,-6.0,31.66,-15.0,3904.39,0.0,3978.54,-9.0,31.46,-28.0,0.16,19.0,31.08,-4.0,31.82,-2.0,3904.39,-32.0,50.0,20.0,3984.33,-43.0
0,31.86,-4.0,31.77,-8.0,31.71,45.0,3907.32,-32.0,3957.32,-90.0,3926.95,14.0,31.58,-33.0,31.36,-35.0,31.18,-10.0,3905.37,0.0,3881.46,-107.0,3987.26,54.0,30.46,-59.0,31.42,-12.0,31.74,107.0,3907.32,0.0,270.18,-159.0,129.76,-41.0,30.85,9.0,31.83,29.0,0.12,-21.0,3905.37,0.0,42.74,-56.0,48.35,26.0,30.89,8.0,31.66,18.0,0.03,-59.0,3905.37,16.0,79.15,-16.0,14.76,11.0
1,31.58,12.0,31.13,6.0,0.16,28.0,3907.32,-48.0,3964.82,54.0,3850.55,-6.0,31.41,10.0,31.17,-12.0,0.15,2.0,3905.37,-32.0,3937.68,14.0,3856.77,7.0,31.07,0.0,31.25,2.0,31.97,-22.0,3904.39,0.0,3850.61,-36.0,3930.0,16.0,30.92,-3.0,31.34,23.0,31.97,12.0,3904.39,0.0,19.82,-5.0,2.99,19.0,31.2,-13.0,31.56,-16.0,0.12,29.0,3904.39,16.0,148.9,76.0,34.82,1.0
0,0.58,6.0,31.17,-24.0,0.04,7.0,3905.37,32.0,3948.17,-4.0,1.52,-4.0,0.58,9.0,31.19,3.0,32.0,-5.0,3905.37,-16.0,3973.66,-6.0,2.74,1.0,0.59,7.0,31.18,11.0,31.98,-7.0,3904.39,32.0,3986.83,-10.0,3995.37,2.0,0.6,-3.0,31.18,-9.0,31.97,14.0,3906.34,-32.0,3992.68,-2.0,3995.91,2.0,0.6,-18.0,31.18,1.0,31.97,33.0,3906.34,-16.0,3989.88,0.0,0.06,2.0
1,31.97,8.0,31.38,-7.0,0.17,-12.0,3897.56,16.0,3989.15,-18.0,5.91,-1.0,31.75,-11.0,31.31,29.0,0.21,16.0,3896.59,-32.0,3989.7,-22.0,3966.46,8.0,31.63,7.0,31.42,7.0,0.03,5.0,3896.59,16.0,3869.94,0.0,3976.71,9.0,31.24,-51.0,31.48,-5.0,31.93,12.0,3897.56,-32.0,3861.71,-16.0,21.95,5.0,30.73,-17.0,31.4,0.0,31.68,8.0,3894.63,32.0,3773.54,16.0,3941.22,-4.0
0,31.51,2.0,31.17,-2.0,31.13,7.0,3903.41,-48.0,4.21,68.0,16.89,6.0,31.63,-30.0,31.59,72.0,31.01,-75.0,3900.49,32.0,3966.77,-63.0,50.43,24.0,31.5,-18.0,0.06,13.0,30.77,11.0,3902.44,0.0,3857.01,14.0,115.55,21.0,31.49,17.0,31.85,-21.0,30.74,22.0,3900.49,16.0,63.9,45.0,146.04,9.0,31.65,62.0,0.58,60.0,30.89,115.0,3901.46,-32.0,71.22,-539.0,81.52,-23.0
0,0.61,-7.0,31.4,-9.0,0.49,-15.0,3907.32,-16.0,3982.74,15.0,3994.02,-2.0,0.62,4.0,31.43,-3.0,0.45,20.0,3904.39,32.0,3976.04,-5.0,3993.6,-2.0,0.61,-11.0,31.42,4.0,0.45,-7.0,3904.39,32.0,3974.76,0.0,3995.61,-4.0,0.61,5.0,31.35,-4.0,0.44,-12.0,3904.39,0.0,3995.18,6.0,3993.29,1.0,0.63,-2.0,31.38,-12.0,0.43,31.0,3904.39,0.0,3994.94,10.0,3994.94,2.0
1,0.96,2.0,31.65,-6.0,31.71,24.0,3925.85,16.0,3993.48,-2.0,3.11,-1.0,0.96,16.0,31.64,-19.0,31.72,-12.0,3925.85,0.0,3990.3,-3.0,1.1,-1.0,0.98,4.0,31.64,-14.0,31.7,13.0,3926.83,-16.0,3994.7,3.0,5.0,3.0,0.96,-3.0,31.64,-6.0,31.71,-1.0,3928.78,-32.0,2.74,0.0,8.96,1.0,0.96,4.0,31.64,2.0,31.73,-36.0,3927.8,-16.0,6.89,3.0,11.04,6.0
1,0.96,54.0,31.9,-5.0,0.01,5.0,3920.0,-32.0,3989.27,1.0,3992.5,9.0,1.1,5.0,31.73,-24.0,31.86,-15.0,3919.02,16.0,3.96,20.0,5.37,13.0,0.96,-5.0,31.84,8.0,0.03,25.0,3920.98,-32.0,18.72,-13.0,2.8,0.0,1.01,25.0,31.93,-11.0,31.99,0.0,3920.98,0.0,14.76,-2.0,12.38,7.0,1.01,9.0,31.91,-4.0,31.99,-11.0,3920.98,-32.0,3994.21,-9.0,3992.44,-3.0
0,0.09,-5.0,31.74,21.0,30.82,19.0,3900.49,32.0,53.05,17.0,3979.88,-1.0,0.07,18.0,31.75,-18.0,30.9,-30.0,3902.44,0.0,45.37,-2.0,3982.8,1.0,0.1,-3.0,31.71,8.0,30.89,-19.0,3902.44,-16.0,33.48,-17.0,3990.06,3.0,0.09,15.0,31.68,-16.0,30.97,9.0,3901.46,0.0,3991.46,-2.0,3994.33,1.0,0.1,1.0,31.62,1.0,30.95,3.0,3900.49,32.0,3983.6,9.0,3993.96,-4.0
1,0.96,2.0,31.65,-6.0,31.71,24.0,3925.85,16.0,3993.48,-2.0,3.11,-1.0,0.96,16.0,31.64,-19.0,31.72,-12.0,3925.85,0.0,3990.3,-3.0,1.1,-1.0,0.98,4.0,31.64,-14.0,31.7,13.0,3926.83,-16.0,3994.7,3.0,5.0,3.0,0.96,-3.0,31.64,-6.0,31.71,-1.0,3928.78,-32.0,2.74,0.0,8.96,1.0,0.96,4.0,31.64,2.0,31.73,-36.0,3927.8,-16.0,6.89,3.0,11.04,6.0
1,0.13,-7.0,31.2,-13.0,0.45,5.0,3905.37,0.0,3981.28,5.0,5.91,3.0,31.98,-2.0,31.25,13.0,0.35,0.0,3903.41,-16.0,3977.68,9.0,13.78,-1.0,31.94,-16.0,31.16,-73.0,0.29,36.0,3902.44,0.0,3940.73,-57.0,3.17,-22.0,31.92,17.0,31.06,-16.0,0.24,-7.0,3902.44,-16.0,3948.6,-20.0,3975.73,2.0,32.0,-65533.0,31.11,-8.0,0.13,-26.0,3904.39,-16.0,3954.51,28.0,3991.34,7.0
1,31.87,-1.0,31.22,-22.0,0.34,16.0,3899.51,32.0,3964.51,-3.0,3947.74,-10.0,31.95,30.0,31.12,15.0,0.25,19.0,3901.46,0.0,3967.44,-19.0,3949.15,6.0,0.17,-18.0,30.92,-13.0,0.11,15.0,3900.49,-32.0,3946.95,-12.0,3979.09,7.0,0.08,10.0,31.08,14.0,0.08,-20.0,3900.49,-16.0,3985.06,-19.0,5.43,8.0,31.98,16.0,30.84,10.0,0.17,-19.0,3899.51,0.0,3926.22,21.0,36.52,8.0
1,1.02,-13.0,31.75,-22.0,31.99,-15.0,3918.05,32.0,3990.91,-3.0,0.0,65531.0,0.99,8.0,31.72,8.0,31.98,-10.0,3920.0,0.0,3992.99,4.0,6.59,-1.0,0.99,17.0,31.71,-7.0,31.97,-18.0,3920.0,-32.0,0.0,4.0,0.43,-3.0,0.97,19.0,31.71,14.0,31.97,31.0,3918.05,0.0,0.85,7.0,0.3,65529.0,1.0,-9.0,31.7,12.0,31.99,-5.0,3919.02,-16.0,3.29,-2.0,3994.21,5.0
1,0.78,-4.0,31.64,-13.0,31.76,-1.0,3909.27,0.0,40.73,-7.0,3902.01,-16.0,0.73,-34.0,31.37,54.0,31.54,51.0,3909.27,0.0,241.04,51.0,3854.51,13.0,0.66,-15.0,31.55,-11.0,31.42,27.0,3911.22,-32.0,125.24,-65.0,3844.21,-4.0,0.71,10.0,31.28,-14.0,30.99,-29.0,3910.24,0.0,3769.15,-79.0,3834.45,10.0,0.77,-2.0,31.9,-9.0,30.79,15.0,3911.22,-16.0,3761.95,-3.0,3972.8,34.0
0,0.68,-20.0,31.47,8.0,0.37,11.0,3904.39,-32.0,4.76,-17.0,1.83,5.0,0.7,1.0,31.46,12.0,0.36,-18.0,3902.44,64.0,5.18,-9.0,1.89,2.0,0.69,8.0,31.41,-8.0,0.33,1.0,3902.44,0.0,3991.1,-9.0,3995.12,7.0,0.56,30.0,31.55,-1.0,0.48,-22.0,3904.39,32.0,3983.84,10.0,3988.84,-11.0,0.68,-2.0,31.51,9.0,0.35,14.0,3902.44,16.0,12.93,-10.0,3989.45,1.0
1,0.13,-7.0,31.2,-13.0,0.45,5.0,3905.37,0.0,3981.28,5.0,5.91,3.0,31.98,-2.0,31.25,13.0,0.35,0.0,3903.41,-16.0,3977.68,9.0,13.78,-1.0,31.94,-16.0,31.16,-73.0,0.29,36.0,3902.44,0.0,3940.73,-57.0,3.17,-22.0,31.92,17.0,31.06,-16.0,0.24,-7.0,3902.44,-16.0,3948.6,-20.0,3975.73,2.0,32.0,-65533.0,31.11,-8.0,0.13,-26.0,3904.39,-16.0,3954.51,28.0,3991.34,7.0
0,0.09,2.0,30.77,7.0,0.05,-18.0,3902.44,16.0,32.93,66.0,3994.15,18.0,0.0,65506.0,30.87,55.0,31.94,-22.0,3903.41,0.0,3927.99,92.0,0.24,16.0,0.03,12.0,30.85,24.0,31.95,-22.0,3900.49,32.0,3982.44,14.0,3.23,-3.0,31.52,-134.0,31.33,158.0,0.27,123.0,3902.44,-32.0,3923.29,-84.0,3982.62,-48.0,1.08,62.0,31.46,-43.0,31.6,-52.0,3902.44,0.0,3965.79,8.0,3917.44,27.0
0,0.55,6.0,31.12,8.0,0.22,6.0,3902.44,16.0,3949.27,17.0,9.57,-3.0,0.51,1.0,31.14,-19.0,0.21,6.0,3903.41,0.0,22.74,44.0,10.73,-2.0,0.51,-30.0,31.32,0.0,0.37,28.0,3901.46,32.0,133.05,-20.0,13.84,-12.0,0.56,3.0,31.32,-4.0,0.45,17.0,3901.46,48.0,3930.55,-6.0,20.91,-4.0,0.61,11.0,31.23,-13.0,0.26,-15.0,3902.44,32.0,3929.15,28.0,13.29,-1.0
1,0.91,0.0,31.52,12.0,0.01,65514.0,3905.37,0.0,3990.49,1.0,3990.0,-3.0,0.9,-19.0,31.47,-10.0,31.99,-65518.0,3905.37,16.0,3987.99,-2.0,3990.91,-4.0,0.91,12.0,31.47,20.0,31.95,-81.0,3907.32,-16.0,3971.04,3.0,3995.98,-65518.0,0.74,-24.0,31.04,18.0,31.84,218.0,3906.34,0.0,3953.23,42.0,18.66,-29.0,0.8,10.0,31.44,12.0,31.91,-5.0,3906.34,0.0,3978.72,-3.0,4.15,2.0
1,0.92,3.0,31.5,16.0,31.89,-28.0,3910.24,0.0,7.68,1.0,3988.29,-3.0,0.9,25.0,31.68,-140.0,31.91,32.0,3910.24,0.0,6.65,-7.0,3987.62,-6.0,1.03,7.0,31.68,4.0,31.9,-1.0,3910.24,16.0,14.15,0.0,3985.3,-3.0,0.99,7.0,31.74,1.0,31.87,1.0,3910.24,-16.0,5.0,1.0,3992.99,2.0,1.01,-19.0,31.74,-16.0,31.85,14.0,3911.22,-32.0,3995.06,0.0,3995.67,6.0
1,1.0,0.0,31.79,-1.0,31.92,-5.0,3924.88,0.0,3992.38,-2.0,3988.29,2.0,1.01,-3.0,31.77,-13.0,31.9,-3.0,3924.88,32.0,3992.07,6.0,3989.94,-3.0,1.01,5.0,31.78,8.0,31.89,-13.0,3924.88,32.0,3995.98,-2.0,3988.48,-1.0,1.0,11.0,31.79,-1.0,31.9,3.0,3925.85,-16.0,3993.48,3.0,3984.82,-2.0,1.01,2.0,31.78,6.0,31.87,1.0,3923.9,32.0,3994.88,-5.0,3985.98,5.0
0,31.55,11.0,31.56,3.0,0.64,26.0,3906.34,0.0,3993.9,-3.0,3991.95,3.0,31.55,-24.0,31.53,13.0,0.63,19.0,3906.34,-16.0,0.73,3.0,3995.49,-5.0,31.55,7.0,31.53,6.0,0.64,-9.0,3905.37,0.0,2.62,0.0,3993.6,3.0,31.56,5.0,31.56,7.0,0.65,9.0,3905.37,32.0,2.13,-6.0,0.37,4.0,31.56,-10.0,31.55,5.0,0.65,-25.0,3907.32,0.0,0.37,-1.0,0.55,2.0
1,31.97,-2.0,31.32,1.0,0.56,1.0,3903.41,32.0,15.12,15.0,3993.35,20.0,0.02,8.0,31.6,-4.0,0.43,15.0,3905.37,-16.0,3968.35,-63.0,3986.34,2.0,0.04,-13.0,30.99,-2.0,0.58,5.0,3904.39,32.0,3982.56,25.0,3989.94,1.0,0.02,7.0,31.31,3.0,0.54,1.0,3903.41,64.0,3960.79,-9.0,8.17,12.0,0.01,3.0,31.38,18.0,0.49,-15.0,3905.37,16.0,3993.23,-1.0,34.76,5.0
0,0.25,-2.0,31.73,3.0,30.9,-11.0,3901.46,0.0,1.4,-15.0,3995.79,3.0,0.24,-5.0,31.71,-9.0,30.93,10.0,3903.41,-32.0,3984.21,-1.0,5.37,2.0,0.21,5.0,31.69,-4.0,30.98,37.0,3900.49,0.0,3982.5,2.0,0.3,-2.0,0.27,15.0,31.65,-42.0,30.9,17.0,3900.49,16.0,0.43,5.0,3990.12,3.0,0.21,-4.0,31.68,7.0,30.94,8.0,3901.46,-32.0,7.26,-11.0,3989.39,-5.0
1,31.96,3.0,31.53,-59.0,0.42,6.0,3903.41,16.0,3907.07,9.0,37.13,2.0,31.81,-17.0,31.68,-1.0,0.33,-3.0,3902.44,0.0,3957.8,-25.0,92.56,12.0,31.25,-12.0,31.7,-35.0,0.13,-36.0,3904.39,0.0,3891.95,-50.0,116.28,13.0,30.28,-1.0,31.37,-15.0,31.94,8.0,3903.41,-32.0,3684.33,-21.0,81.1,-35.0,30.86,30.0,31.53,14.0,31.95,14.0,3903.41,0.0,3893.72,70.0,3966.22,-12.0
1,0.95,16.0,31.6,-3.0,31.79,4.0,3922.93,-32.0,3995.49,6.0,1.89,-4.0,0.95,-8.0,31.63,-3.0,31.8,12.0,3920.98,0.0,3.66,-1.0,3.96,1.0,0.95,-15.0,31.63,-3.0,31.8,-23.0,3923.9,-16.0,0.0,5.0,4.33,-1.0,0.95,-6.0,31.63,4.0,31.79,-7.0,3921.95,32.0,3995.55,2.0,0.55,-3.0,0.95,-2.0,31.61,17.0,31.81,-1.0,3923.9,0.0,3995.06,4.0,3.35,-6.0
0,30.99,15.0,31.21,7.0,31.79,20.0,3906.34,-16.0,46.4,-18.0,9.82,-1.0,31.17,27.0,31.18,-1.0,31.71,-15.0,3905.37,0.0,3960.37,-3.0,21.77,10.0,31.57,10.0,31.19,-13.0,31.43,-21.0,3905.37,-16.0,3718.41,9.0,100.98,30.0,31.79,18.0,31.49,18.0,31.21,-16.0,3905.37,16.0,3920.85,2.0,177.8,16.0,0.19,15.0,31.21,52.0,31.5,-47.0,3906.34,-32.0,3988.17,47.0,95.24,-7.0
0,0.03,-2.0,31.82,6.0,30.95,3.0,3902.44,0.0,0.67,5.0,3975.24,-12.0,0.12,3.0,31.72,9.0,30.84,24.0,3900.49,16.0,4.45,-9.0,3980.0,5.0,0.09,4.0,31.74,-13.0,30.88,6.0,3903.41,-32.0,7.62,-3.0,3991.1,7.0,0.11,-2.0,31.73,1.0,30.87,53.0,3901.46,16.0,15.98,5.0,3992.68,1.0,0.02,-11.0,31.76,13.0,30.9,7.0,3902.44,0.0,20.24,7.0,6.65,3.0
1,0.98,-14.0,31.79,7.0,31.88,2.0,3915.12,16.0,5.91,1.0,5.67,-1.0,0.94,13.0,31.83,21.0,31.88,7.0,3915.12,32.0,7.87,2.0,3993.05,-2.0,0.93,-4.0,31.87,2.0,31.86,-14.0,3915.12,48.0,9.7,-3.0,3989.51,-5.0,0.82,3.0,31.91,-5.0,31.86,5.0,3917.07,0.0,26.59,6.0,3973.23,16.0,0.66,-198.0,31.94,-65373.0,31.94,-65096.0,3917.07,-32.0,21.34,28.0,3944.21,-223.0
1,0.94,-7.0,31.64,-11.0,0.02,-19.0,3922.93,-16.0,7.07,-33.0,3990.37,-26.0,0.96,-19.0,31.61,10.0,31.96,-8.0,3921.95,0.0,1.59,-3.0,3989.63,6.0,1.0,-41.0,31.63,21.0,31.95,-4.0,3920.98,-32.0,3992.44,-4.0,3992.2,-1.0,0.98,-15.0,31.63,4.0,31.95,11.0,3919.02,0.0,3983.05,-5.0,3993.66,3.0,1.0,-13.0,31.62,-3.0,31.91,-3.0,3918.05,32.0,3990.91,1.0,7.44,0.0
1,0.98,13.0,31.75,2.0,31.97,-3.0,3909.27,0.0,3988.66,1.0,3993.78,-2.0,1.0,1.0,31.74,2.0,31.99,-65516.0,3911.22,-16.0,3993.17,-3.0,3991.46,1.0,0.99,8.0,31.75,-4.0,31.97,5.0,3908.29,32.0,3994.09,5.0,3989.15,4.0,1.02,-14.0,31.73,5.0,31.92,-5.0,3912.2,-32.0,3995.79,2.0,3991.28,-3.0,1.01,7.0,31.73,3.0,31.89,13.0,3912.2,-64.0,1.46,3.0,0.55,-2.0
1,31.49,-12.0,31.54,-2.0,0.01,-20.0,3901.46,-32.0,3821.83,12.0,9.57,-14.0,30.86,-9.0,31.44,-1.0,31.97,6.0,3900.49,-32.0,3838.78,5.0,3920.0,-29.0,30.17,18.0,31.6,-30.0,31.33,-31.0,3900.49,-16.0,3515.24,-119.0,3922.68,-10.0,31.02,4.0,31.46,-13.0,31.58,27.0,3897.56,48.0,98.84,109.0,3944.7,34.0,31.23,-22.0,0.02,-20.0,31.78,8.0,3898.54,0.0,3990.43,-145.0,3985.55,-1.0
1,31.58,12.0,31.13,6.0,0.16,28.0,3907.32,-48.0,3964.82,54.0,3850.55,-6.0,31.41,10.0,31.17,-12.0,0.15,2.0,3905.37,-32.0,3937.68,14.0,3856.77,7.0,31.07,0.0,31.25,2.0,31.97,-22.0,3904.39,0.0,3850.61,-36.0,3930.0,16.0,30.92,-3.0,31.34,23.0,31.97,12.0,3904.39,0.0,19.82,-5.0,2.99,19.0,31.2,-13.0,31.56,-16.0,0.12,29.0,3904.39,16.0,148.9,76.0,34.82,1.0
0,31.41,-3.0,31.41,2.0,31.54,14.0,3902.44,16.0,3962.2,-3.0,3966.34,3.0,31.39,9.0,31.44,-9.0,31.48,2.0,3903.41,-32.0,3952.2,-12.0,3976.95,3.0,31.31,-8.0,31.37,-3.0,31.49,5.0,3901.46,0.0,3962.38,-4.0,3983.48,5.0,31.31,-12.0,31.45,-6.0,31.56,0.0,3901.46,16.0,3987.5,7.0,3995.55,3.0,31.27,-2.0,31.38,6.0,31.57,-6.0,3902.44,0.0,26.22,9.0,3993.41,-9.0
0,31.66,13.0,31.32,-25.0,0.73,-19.0,3903.41,0.0,8.29,1.0,3980.73,-16.0,31.86,-6.0,31.33,-20.0,0.61,3.0,3901.46,64.0,3986.16,12.0,13.17,-8.0,31.74,3.0,31.27,-11.0,0.54,-20.0,3902.44,0.0,6.34,2.0,11.46,3.0,31.81,7.0,31.33,20.0,0.51,-6.0,3902.44,32.0,3986.22,-9.0,3991.16,8.0,31.71,-5.0,31.3,5.0,0.57,7.0,3905.37,-64.0,6.4,-8.0,3992.5,-9.0
1,0.92,3.0,31.5,78.0,31.8,32.0,3924.88,16.0,24.57,31.0,33.78,-3.0,0.97,11.0,31.6,18.0,31.83,7.0,3927.8,48.0,23.78,0.0,54.51,12.0,0.96,-11.0,31.63,5.0,31.94,32.0,3927.8,-32.0,37.62,4.0,79.33,16.0,0.99,-4.0,31.7,3.0,0.09,-29.0,3928.78,-64.0,51.52,2.0,119.21,19.0,0.74,-20.0,31.74,-3.0,0.24,13.0,3925.85,32.0,64.63,14.0,189.33,28.0
0,0.62,6.0,31.29,5.0,31.54,-12.0,3905.37,-32.0,22.5,8.0,3992.13,3.0,0.67,6.0,31.31,11.0,31.5,-1.0,3905.37,-32.0,11.83,-5.0,3993.48,1.0,0.7,6.0,31.3,13.0,31.55,-2.0,3904.39,0.0,5.79,-4.0,8.54,2.0,0.72,-1.0,31.29,1.0,31.62,7.0,3904.39,0.0,27.5,16.0,15.12,1.0,0.7,1.0,31.23,17.0,31.7,9.0,3904.39,-16.0,98.96,0.0,3.78,1.0
0,31.79,-4.0,31.25,2.0,0.12,-2.0,3904.39,-32.0,3957.01,-33.0,3985.3,-8.0,31.98,-2.0,31.51,-22.0,31.95,-17.0,3902.44,32.0,3959.21,-55.0,30.0,17.0,31.78,5.0,30.96,1.0,0.54,-16.0,3904.39,-32.0,3983.78,6.0,27.38,-27.0,0.06,-9.0,31.01,83.0,0.36,-48.0,3904.39,-16.0,2.8,-19.0,25.49,-9.0,0.09,2.0,31.1,9.0,0.1,-16.0,3902.44,16.0,8.05,4.0,26.22,1.0
1,0.72,-6.0,31.67,17.0,0.23,69.0,3910.24,16.0,3991.95,23.0,35.49,-6.0,0.5,-12.0,31.79,12.0,0.21,-4.0,3912.2,-16.0,3989.15,-9.0,54.15,8.0,0.28,-65.0,31.86,-30.0,31.92,-65367.0,3910.24,48.0,3922.62,-63.0,81.77,-45.0,31.08,-285.0,31.15,-1554.0,0.71,2530.0,3912.2,16.0,205.3,986.0,305.98,47.0,31.92,-415.0,30.93,615.0,1.31,-331.0,3911.22,0.0,54.82,-270.0,97.26,-1.0
0,31.75,-1.0,31.55,-3.0,0.54,-8.0,3901.46,0.0,69.45,26.0,3962.13,23.0,31.72,-6.0,31.36,59.0,0.78,-13.0,3900.49,0.0,120.12,-29.0,15.43,-11.0,31.35,56.0,31.12,96.0,0.69,-34.0,3902.44,0.0,69.82,-11.0,3951.77,-17.0,31.68,-4.0,31.46,1.0,0.36,12.0,3902.44,-16.0,3862.26,16.0,5.18,27.0,31.79,-7.0,31.74,19.0,31.96,-19.0,3902.44,-16.0,11.34,-32.0,63.48,43.0
1,31.87,-17.0,31.15,-9.0,0.1,23.0,3897.56,0.0,3855.85,74.0,44.39,-1.0,31.48,-53.0,31.33,34.0,0.09,-17.0,3898.54,32.0,5.37,17.0,70.61,14.0,30.48,-50.0,31.49,-4.0,31.99,-44.0,3896.59,48.0,3874.21,-42.0,57.99,-19.0,30.7,-4.0,31.6,-34.0,31.96,-6.0,3899.51,16.0,3793.35,51.0,3962.8,-16.0,30.91,1.0,31.63,-23.0,31.59,-3.0,3898.54,16.0,3745.91,-29.0,3902.5,-2.0
1,0.05,-13.0,31.61,-11.0,0.19,-1.0,3899.51,-16.0,3921.16,4.0,49.94,16.0,31.49,-33.0,31.49,-9.0,0.09,-15.0,3900.49,0.0,3947.87,16.0,113.6,10.0,30.08,-7.0,31.7,15.0,31.94,-39.0,3899.51,0.0,3834.33,-116.0,114.88,-16.0,30.78,5.0,31.58,255.0,31.98,-51.0,3901.46,-16.0,3606.83,53.0,3968.6,-27.0,30.76,17.0,31.58,30.0,31.51,10.0,3898.54,0.0,3918.54,-60.0,3914.76,-28.0
0,0.01,65512.0,31.14,10.0,31.75,-15.0,3903.41,16.0,141.22,-63.0,2.44,-14.0,31.95,-30.0,31.18,-9.0,31.92,-28.0,3901.46,16.0,116.59,-82.0,1.89,-13.0,0.07,10.0,31.0,7.0,0.16,10.0,3904.39,-32.0,7.93,13.0,3980.67,6.0,0.15,-19.0,31.0,-9.0,0.15,19.0,3902.44,-16.0,3941.4,14.0,3988.35,-6.0,0.22,1.0,31.02,2.0,0.13,2.0,3901.46,32.0,32.38,28.0,3995.37,7.0
0,0.59,7.0,31.23,-23.0,0.17,-7.0,3904.39,0.0,3979.27,14.0,3988.29,5.0,0.56,-2.0,31.16,-8.0,0.13,11.0,3906.34,-32.0,6.04,0.0,3.11,1.0,0.54,9.0,31.17,9.0,0.18,6.0,3906.34,-48.0,2.93,6.0,3993.78,3.0,0.57,-6.0,31.19,-9.0,0.15,-23.0,3905.37,0.0,3985.85,-12.0,3991.1,-1.0,0.58,5.0,31.21,10.0,0.11,14.0,3905.37,16.0,3953.9,-19.0,3995.43,4.0
1,0.99,-3.0,31.74,0.0,31.89,-16.0,3915.12,0.0,3990.79,-2.0,3991.77,-2.0,1.02,4.0,31.74,10.0,31.87,-1.0,3911.22,32.0,3983.66,-3.0,3.29,0.0,0.96,1.0,31.72,-5.0,31.83,-3.0,3913.17,-32.0,3975.98,4.0,3995.91,-5.0,0.97,5.0,31.68,-19.0,31.81,-4.0,3913.17,0.0,3992.38,8.0,3983.23,-5.0,1.0,1.0,31.73,-1.0,31.82,10.0,3913.17,16.0,4.09,0.0,3979.76,2.0
0,31.56,-5.0,31.22,-7.0,31.74,-11.0,3901.46,16.0,3985.18,11.0,35.49,-11.0,31.52,-5.0,31.09,-22.0,31.66,7.0,3904.39,-32.0,3955.79,-8.0,3.17,-2.0,31.31,-8.0,31.2,-24.0,31.67,7.0,3904.39,0.0,76.83,-8.0,3979.7,-7.0,31.41,-14.0,31.5,9.0,31.82,-3.0,3902.44,-16.0,37.2,-35.0,3978.35,-2.0,31.08,-12.0,31.54,11.0,31.7,8.0,3903.41,0.0,3912.26,-13.0,3949.82,-19.0
1,31.97,-2.0,31.32,1.0,0.56,1.0,3903.41,32.0,15.12,15.0,3993.35,20.0,0.02,8.0,31.6,-4.0,0.43,15.0,3905.37,-16.0,3968.35,-63.0,3986.34,2.0,0.04,-13.0,30.99,-2.0,0.58,5.0,3904.39,32.0,3982.56,25.0,3989.94,1.0,0.02,7.0,31.31,3.0,0.54,1.0,3903.41,64.0,3960.79,-9.0,8.17,12.0,0.01,3.0,31.38,18.0,0.49,-15.0,3905.37,16.0,3993.23,-1.0,34.76,5.0
0,31.04,2.0,31.71,7.0,31.87,-8.0,3901.46,48.0,3963.11,-3.0,3985.67,-3.0,31.06,-4.0,31.73,12.0,31.95,21.0,3903.41,0.0,3954.51,7.0,3982.56,3.0,31.1,-4.0,31.77,2.0,0.03,-18.0,3905.37,-16.0,3966.04,-9.0,3967.07,-6.0,31.14,-1.0,31.75,-9.0,0.0,-1.0,3903.41,-16.0,3934.33,-5.0,3949.45,-9.0,30.96,-3.0,31.64,-15.0,0.01,6.0,3904.39,0.0,3874.33,-3.0,3947.07,-5.0
1,31.58,12.0,31.13,6.0,0.16,28.0,3907.32,-48.0,3964.82,54.0,3850.55,-6.0,31.41,10.0,31.17,-12.0,0.15,2.0,3905.37,-32.0,3937.68,14.0,3856.77,7.0,31.07,0.0,31.25,2.0,31.97,-22.0,3904.39,0.0,3850.61,-36.0,3930.0,16.0,30.92,-3.0,31.34,23.0,31.97,12.0,3904.39,0.0,19.82,-5.0,2.99,19.0,31.2,-13.0,31.56,-16.0,0.12,29.0,3904.39,16.0,148.9,76.0,34.82,1.0
0,0.42,1.0,31.16,-16.0,0.08,14.0,3902.44,16.0,3984.76,-37.0,3941.1,-9.0,0.42,-4.0,31.09,9.0,0.06,6.0,3903.41,16.0,26.16,-16.0,3923.78,-3.0,0.47,-6.0,31.0,-16.0,0.03,4.0,3905.37,-48.0,3972.2,17.0,3906.59,-6.0,0.49,1.0,31.19,-22.0,31.82,-13.0,3902.44,0.0,3906.89,-13.0,3892.68,11.0,0.42,-9.0,30.9,-45.0,31.77,41.0,3902.44,0.0,3969.57,114.0,3930.61,5.0
1,0.1,-4.0,31.52,-13.0,0.52,16.0,3902.44,-32.0,3961.1,-12.0,0.49,-1.0,0.02,-16.0,31.37,-3.0,0.6,28.0,3902.44,0.0,3988.54,7.0,3968.66,1.0,31.89,-8.0,31.06,-26.0,0.73,31.0,3900.49,48.0,7.26,43.0,3964.7,-2.0,31.93,2.0,31.44,5.0,0.67,13.0,3901.46,32.0,3993.35,-25.0,3980.24,4.0,31.97,-3.0,31.26,11.0,0.6,-15.0,3901.46,16.0,3993.11,12.0,3989.88,4.0
0,0.58,9.0,31.17,12.0,32.0,-5.0,3903.41,64.0,3985.73,1.0,1.04,1.0,0.57,-14.0,31.15,10.0,0.01,65510.0,3905.37,32.0,3994.88,-2.0,0.49,-5.0,0.6,9.0,31.15,-5.0,31.98,-2.0,3905.37,-32.0,3994.02,7.0,4.39,7.0,0.57,7.0,31.16,8.0,31.96,29.0,3905.37,16.0,2.93,3.0,4.27,-7.0,0.56,-23.0,31.18,-10.0,0.0,6.0,3906.34,-32.0,0.61,-6.0,2.87,-6.0
0,31.51,31.0,31.24,27.0,31.38,11.0,3902.44,0.0,73.78,-14.0,56.52,11.0,31.53,-14.0,31.37,-6.0,31.53,-7.0,3904.39,0.0,49.09,-53.0,45.43,-22.0,31.56,25.0,31.25,5.0,31.49,-9.0,3902.44,16.0,39.7,-24.0,24.02,-1.0,31.62,0.0,31.1,23.0,31.6,24.0,3901.46,32.0,30.24,-23.0,23.17,-14.0,31.65,7.0,30.96,-44.0,31.77,33.0,3903.41,0.0,82.01,41.0,10.73,-11.0
0,0.27,11.0,30.88,18.0,0.13,0.0,3905.37,-16.0,3919.09,60.0,30.12,5.0,0.4,21.0,31.06,2.0,0.12,-7.0,3904.39,0.0,29.21,36.0,13.9,-3.0,0.55,12.0,31.2,38.0,0.1,-56.0,3902.44,0.0,75.24,37.0,5.43,4.0,0.65,8.0,31.56,8.0,0.32,10.0,3902.44,32.0,39.39,-24.0,2.32,7.0,0.7,8.0,31.38,10.0,0.37,12.0,3904.39,-16.0,6.65,9.0,4.27,3.0
0,30.74,-25.0,30.96,2.0,31.82,24.0,3906.34,0.0,3947.38,9.0,3988.23,2.0,31.25,35.0,31.76,37.0,31.79,25.0,3905.37,16.0,3929.09,-83.0,23.41,-5.0,0.14,-29.0,31.55,-1.0,31.39,-7.0,3906.34,0.0,138.72,100.0,3966.52,12.0,31.97,-39.0,30.32,-44.0,31.45,39.0,3906.34,32.0,3969.21,64.0,30.98,14.0,31.98,18.0,30.57,-57.0,31.94,-25.0,3906.34,-32.0,3857.5,105.0,3970.61,32.0
0,0.49,6.0,31.32,17.0,31.4,-66.0,3907.32,-32.0,3915.37,-13.0,3991.46,31.0,0.47,-3.0,31.13,-17.0,31.42,29.0,3905.37,-16.0,3859.45,0.0,65.61,-24.0,0.58,7.0,31.2,3.0,31.3,21.0,3905.37,0.0,3934.27,-14.0,30.18,2.0,0.38,17.0,31.19,28.0,31.45,2.0,3905.37,16.0,22.87,61.0,2.8,-16.0,0.53,-1.0,31.34,83.0,31.46,1.0,3904.39,0.0,135.55,5.0,10.85,-10.0
0,0.62,-12.0,31.28,3.0,31.51,-3.0,3904.39,48.0,17.38,8.0,8.66,-8.0,0.63,-5.0,31.3,0.0,31.47,1.0,3903.41,16.0,14.94,-8.0,3993.54,4.0,0.64,-8.0,31.33,-1.0,31.55,-10.0,3903.41,16.0,11.71,-7.0,3.29,-1.0,0.65,9.0,31.35,13.0,31.51,21.0,3904.39,0.0,3986.77,-9.0,2.56,0.0,0.67,-10.0,31.32,-4.0,31.5,21.0,3906.34,-48.0,3976.34,16.0,2.2,-3.0
0,0.67,-15.0,31.44,-6.0,0.47,4.0,3906.34,-32.0,3983.29,9.0,0.55,5.0,0.66,-1.0,31.44,17.0,0.47,-14.0,3906.34,0.0,1.22,11.0,3995.43,3.0,0.67,2.0,31.48,-4.0,0.45,-8.0,3906.34,-32.0,3986.22,-1.0,0.37,1.0,0.67,12.0,31.48,12.0,0.42,3.0,3904.39,-32.0,3968.84,-10.0,0.67,5.0,0.67,-5.0,31.43,-2.0,0.42,8.0,3904.39,-16.0,3971.22,5.0,3994.7,-4.0
0,0.43,3.0,31.25,-43.0,0.38,-22.0,3902.44,0.0,21.89,-7.0,1.52,-2.0,0.42,-7.0,31.27,-6.0,0.42,-12.0,3902.44,16.0,3767.26,7.0,3994.02,-11.0,0.33,-13.0,30.73,56.0,0.12,-24.0,3903.41,0.0,3872.44,133.0,14.45,-2.0,0.3,-17.0,31.06,-33.0,0.15,-16.0,3902.44,0.0,52.2,24.0,3984.51,-12.0,0.48,11.0,31.12,-4.0,0.12,17.0,3904.39,-32.0,75.12,-9.0,3988.11,-1.0
1,31.89,-25.0,31.1,147.0,0.12,92.0,3901.46,-48.0,8.78,-56.0,3972.26,-20.0,31.79,-28.0,30.97,-24.0,0.14,-1.0,3900.49,0.0,5.06,19.0,3973.05,-9.0,31.89,-5.0,31.1,18.0,0.15,18.0,3900.49,0.0,3992.93,-13.0,3978.66,8.0,0.05,-6.0,30.94,22.0,0.16,-60.0,3901.46,0.0,3967.01,48.0,9.33,14.0,31.99,-12.0,31.04,-9.0,0.12,-2.0,3899.51,-16.0,3957.01,4.0,31.4,-9.0
1,1.0,-9.0,31.83,7.0,0.11,-7.0,3928.78,32.0,9.76,4.0,27.68,1.0,0.99,5.0,31.82,9.0,0.1,-3.0,3929.76,0.0,7.62,2.0,39.21,2.0,0.97,29.0,31.84,-55.0,0.15,-56.0,3930.73,-16.0,13.35,13.0,58.9,117.0,0.88,6.0,31.82,0.0,0.16,-7.0,3929.76,-16.0,22.07,7.0,88.72,8.0,0.78,-1.0,31.86,-7.0,0.28,-28.0,3927.8,32.0,47.01,10.0,120.24,15.0
1,0.96,-1.0,31.65,10.0,31.92,-3.0,3932.68,0.0,3992.26,13.0,3992.87,13.0,0.95,23.0,31.65,-12.0,31.92,6.0,3933.66,-48.0,3991.65,-2.0,3992.8,-1.0,0.96,-4.0,31.65,-11.0,31.91,11.0,3931.71,32.0,3994.63,0.0,3993.35,0.0,0.98,-12.0,31.65,-3.0,31.9,8.0,3934.63,0.0,3995.37,2.0,3993.23,-5.0,0.98,0.0,31.68,-6.0,31.9,8.0,3933.66,0.0,2.8,1.0,3994.76,-4.0
0,0.49,31.0,31.65,66.0,31.54,-94.0,3902.44,0.0,3970.37,-2.0,3966.04,31.0,0.54,11.0,31.27,19.0,0.07,-61.0,3902.44,32.0,36.34,68.0,3977.13,-1.0,0.52,-22.0,31.34,-32.0,0.0,65515.0,3901.46,32.0,66.95,28.0,3993.78,-12.0,0.49,9.0,31.26,-13.0,0.0,0.0,3901.46,16.0,3985.18,-5.0,3972.62,-4.0,0.47,17.0,30.99,-17.0,0.03,24.0,3901.46,-16.0,3956.95,6.0,3978.35,10.0
0,31.85,-36.0,31.08,-69.0,31.54,6.0,3902.44,0.0,3887.01,94.0,3951.4,-23.0,31.48,-5.0,31.28,-66.0,31.37,-49.0,3904.39,-16.0,3967.38,-39.0,3961.16,-20.0,31.41,20.0,31.27,-18.0,31.42,7.0,3905.37,-64.0,36.71,-31.0,0.3,13.0,31.43,-9.0,31.33,-4.0,31.54,7.0,3904.39,-16.0,7.44,-32.0,5.0,1.0,31.56,11.0,31.2,-17.0,31.51,-20.0,3902.44,0.0,3992.99,-5.0,3989.51,3.0
1,31.9,1.0,31.14,-4.0,0.18,-1.0,3895.61,16.0,3950.18,-3.0,3979.94,-6.0,31.92,3.0,31.0,-16.0,0.1,-14.0,3896.59,0.0,3943.11,-7.0,3969.88,7.0,31.95,5.0,31.07,7.0,0.1,-3.0,3895.61,0.0,3977.68,7.0,3975.55,-1.0,0.08,-14.0,30.9,5.0,0.0,29.0,3894.63,32.0,3954.39,29.0,3981.95,1.0,0.05,12.0,31.08,4.0,0.05,4.0,3894.63,16.0,3994.09,-4.0,3989.27,-3.0
1,31.58,-12.0,31.6,-16.0,0.13,-26.0,3898.54,16.0,3884.21,0.0,45.43,8.0,30.97,-22.0,31.73,-1.0,31.98,6.0,3899.51,-32.0,3781.1,-73.0,59.94,-4.0,30.5,-22.0,31.42,-34.0,31.77,4.0,3900.49,-32.0,3629.76,84.0,3995.06,-40.0,30.75,25.0,31.6,64.0,31.68,1.0,3899.51,0.0,3980.3,-4.0,3944.94,15.0,31.3,1.0,31.88,9.0,31.71,2.0,3901.46,-48.0,3911.89,-51.0,3939.39,-4.0
1,0.92,3.0,31.5,16.0,31.89,-28.0,3910.24,0.0,7.68,1.0,3988.29,-3.0,0.9,25.0,31.68,-140.0,31.91,32.0,3910.24,0.0,6.65,-7.0,3987.62,-6.0,1.03,7.0,31.68,4.0,31.9,-1.0,3910.24,16.0,14.15,0.0,3985.3,-3.0,0.99,7.0,31.74,1.0,31.87,1.0,3910.24,-16.0,5.0,1.0,3992.99,2.0,1.01,-19.0,31.74,-16.0,31.85,14.0,3911.22,-32.0,3995.06,0.0,3995.67,6.0
0,0.62,0.0,31.47,-8.0,0.5,-10.0,3904.39,16.0,3993.54,-4.0,2.74,2.0,0.61,8.0,31.47,12.0,0.5,9.0,3907.32,-64.0,3979.63,-20.0,1.83,3.0,0.61,-17.0,31.48,10.0,0.49,-13.0,3905.37,0.0,3991.16,-11.0,3995.18,-3.0,0.61,-9.0,31.44,10.0,0.48,-9.0,3905.37,-32.0,3.17,-1.0,1.89,-2.0,0.62,-7.0,31.43,-9.0,0.48,-10.0,3903.41,48.0,0.49,2.0,2.5,-2.0
0,31.93,-3.0,31.13,11.0,0.17,12.0,3904.39,0.0,3756.71,88.0,46.83,7.0,31.73,-10.0,30.79,44.0,0.12,-22.0,3904.39,-16.0,3841.34,-51.0,116.22,-8.0,31.46,-8.0,30.88,-46.0,31.05,-2.0,3904.39,16.0,3582.87,126.0,57.07,-7.0,31.46,27.0,31.34,12.0,31.09,-2.0,3905.37,0.0,3978.11,113.0,4.39,-1.0,31.42,-21.0,31.15,89.0,31.24,4.0,3905.37,0.0,74.39,103.0,3987.8,-12.0
1,31.9,-21.0,31.65,-23.0,0.18,-16.0,3900.49,16.0,3888.11,-20.0,1.95,1.0,31.34,-6.0,31.56,0.0,31.98,20.0,3901.46,-16.0,3845.0,-33.0,7.5,-2.0,30.11,-11.0,31.46,40.0,31.49,-71.0,3899.51,16.0,3574.09,-133.0,3928.41,-28.0,30.81,9.0,31.18,52.0,31.82,22.0,3902.44,-32.0,3797.93,249.0,3895.73,24.0,30.99,11.0,31.66,13.0,31.52,1.0,3899.51,0.0,56.71,-74.0,3926.59,0.0
1,1.0,-9.0,31.83,7.0,0.11,-7.0,3928.78,32.0,9.76,4.0,27.68,1.0,0.99,5.0,31.82,9.0,0.1,-3.0,3929.76,0.0,7.62,2.0,39.21,2.0,0.97,29.0,31.84,-55.0,0.15,-56.0,3930.73,-16.0,13.35,13.0,58.9,117.0,0.88,6.0,31.82,0.0,0.16,-7.0,3929.76,-16.0,22.07,7.0,88.72,8.0,0.78,-1.0,31.86,-7.0,0.28,-28.0,3927.8,32.0,47.01,10.0,120.24,15.0
1,31.91,7.0,31.32,-8.0,0.33,-26.0,3897.56,0.0,2.26,4.0,3925.12,-13.0,31.75,-22.0,31.22,0.0,0.28,30.0,3897.56,-16.0,3984.63,-12.0,3898.48,-9.0,31.42,15.0,31.26,14.0,0.31,-23.0,3898.54,-16.0,3895.0,-79.0,3897.26,-14.0,31.48,-23.0,31.25,-53.0,31.9,23.0,3897.56,-16.0,3742.5,9.0,3900.67,-5.0,31.24,-25.0,31.32,-9.0,31.96,-17.0,3898.54,0.0,3827.5,-3.0,3958.6,-8.0
1,31.96,3.0,31.53,-59.0,0.42,6.0,3903.41,16.0,3907.07,9.0,37.13,2.0,31.81,-17.0,31.68,-1.0,0.33,-3.0,3902.44,0.0,3957.8,-25.0,92.56,12.0,31.25,-12.0,31.7,-35.0,0.13,-36.0,3904.39,0.0,3891.95,-50.0,116.28,13.0,30.28,-1.0,31.37,-15.0,31.94,8.0,3903.41,-32.0,3684.33,-21.0,81.1,-35.0,30.86,30.0,31.53,14.0,31.95,14.0,3903.41,0.0,3893.72,70.0,3966.22,-12.0
0,31.29,-38.0,31.47,121.0,0.39,-43.0,3907.32,-16.0,3857.68,-104.0,3991.95,-3.0,31.68,-8.0,31.42,-13.0,0.32,24.0,3907.32,16.0,3967.87,-35.0,23.9,20.0,31.72,15.0,31.38,-41.0,0.19,-4.0,3906.34,-32.0,3956.1,-26.0,96.34,15.0,31.7,3.0,31.57,3.0,0.28,-8.0,3906.34,0.0,11.46,17.0,135.55,22.0,31.48,188.0,31.67,-123.0,0.22,-83.0,3905.37,48.0,115.85,-29.0,155.43,20.0
1,31.58,12.0,31.13,6.0,0.16,28.0,3907.32,-48.0,3964.82,54.0,3850.55,-6.0,31.41,10.0,31.17,-12.0,0.15,2.0,3905.37,-32.0,3937.68,14.0,3856.77,7.0,31.07,0.0,31.25,2.0,31.97,-22.0,3904.39,0.0,3850.61,-36.0,3930.0,16.0,30.92,-3.0,31.34,23.0,31.97,12.0,3904.39,0.0,19.82,-5.0,2.99,19.0,31.2,-13.0,31.56,-16.0,0.12,29.0,3904.39,16.0,148.9,76.0,34.82,1.0
1,31.97,10.0,31.2,11.0,0.57,-17.0,3897.56,-32.0,3985.79,-9.0,3970.55,-2.0,0.1,5.0,31.26,-4.0,0.45,-3.0,3896.59,0.0,3935.18,-12.0,3967.5,2.0,0.13,10.0,31.12,-29.0,0.44,27.0,3897.56,-32.0,3955.0,-5.0,3977.62,-12.0,31.95,8.0,31.17,26.0,0.33,1.0,3896.59,0.0,15.12,-5.0,3970.67,8.0,31.87,-3.0,30.71,-14.0,0.44,-38.0,3895.61,32.0,3939.88,38.0,3972.93,3.0
0,31.68,-14.0,31.05,-2.0,0.07,-9.0,3903.41,-16.0,3793.54,-10.0,3932.44,0.0,31.64,-5.0,31.0,2.0,0.01,-18.0,3902.44,0.0,3913.66,21.0,3963.11,-9.0,31.75,-2.0,31.21,7.0,31.95,84.0,3900.49,32.0,3968.41,-10.0,3942.13,-15.0,31.86,0.0,31.01,-20.0,31.93,-19.0,3900.49,0.0,3949.09,-18.0,3932.8,7.0,31.92,-7.0,30.72,27.0,31.96,-6.0,3902.44,32.0,16.77,66.0,3982.07,5.0
1,0.9,-5.0,31.48,45.0,0.02,17.0,3903.41,0.0,3985.85,28.0,3988.11,-1.0,0.88,9.0,31.44,-6.0,0.03,-14.0,3903.41,16.0,4.02,10.0,1.52,1.0,0.85,-47.0,31.44,47.0,0.04,59.0,3902.44,32.0,9.76,-32.0,3988.78,-104.0,0.79,3.0,31.61,-8.0,31.98,-65502.0,3902.44,0.0,2.99,-43.0,2.2,2.0,0.91,-21.0,31.5,-23.0,0.03,0.0,3902.44,16.0,1.22,-3.0,3995.91,-65533.0
1,1.0,2.0,31.56,19.0,31.96,5.0,3910.24,0.0,10.37,-33.0,3983.11,0.0,1.06,8.0,31.78,-49.0,31.85,17.0,3910.24,16.0,3992.8,-40.0,13.66,-8.0,1.03,-8.0,31.81,-12.0,31.99,7.0,3910.24,16.0,60.98,-24.0,54.7,7.0,1.02,15.0,31.82,47.0,0.17,0.0,3910.24,16.0,62.2,51.0,47.68,8.0,0.88,1.0,0.03,5.0,0.13,19.0,3911.22,-32.0,6.22,4.0,34.82,2.0
1,31.9,-21.0,31.65,-23.0,0.18,-16.0,3900.49,16.0,3888.11,-20.0,1.95,1.0,31.34,-6.0,31.56,0.0,31.98,20.0,3901.46,-16.0,3845.0,-33.0,7.5,-2.0,30.11,-11.0,31.46,40.0,31.49,-71.0,3899.51,16.0,3574.09,-133.0,3928.41,-28.0,30.81,9.0,31.18,52.0,31.82,22.0,3902.44,-32.0,3797.93,249.0,3895.73,24.0,30.99,11.0,31.66,13.0,31.52,1.0,3899.51,0.0,56.71,-74.0,3926.59,0.0
0,0.68,-4.0,31.44,-3.0,0.39,8.0,3904.39,16.0,3995.37,-10.0,0.55,-5.0,0.68,-4.0,31.45,-8.0,0.4,-7.0,3903.41,32.0,13.72,-12.0,3993.6,3.0,0.67,-7.0,31.45,-9.0,0.42,-2.0,3905.37,0.0,10.37,-13.0,3995.3,5.0,0.67,-2.0,31.43,7.0,0.41,11.0,3903.41,0.0,3992.56,-2.0,1.46,-1.0,0.67,-4.0,31.42,-3.0,0.42,-9.0,3905.37,0.0,2.07,3.0,3995.18,2.0
0,31.33,17.0,31.75,-14.0,0.01,65519.0,3903.41,32.0,3958.9,1.0,7.56,-9.0,31.1,-3.0,31.61,-14.0,31.92,7.0,3903.41,16.0,3930.61,-21.0,3985.55,3.0,30.96,13.0,31.38,10.0,31.89,-9.0,3902.44,0.0,3898.9,18.0,3987.38,-5.0,30.94,-5.0,31.45,-16.0,31.82,-4.0,3900.49,32.0,3977.87,11.0,3989.02,8.0,30.89,-15.0,31.55,2.0,31.86,38.0,3902.44,0.0,22.44,24.0,3994.27,-4.0
1,0.99,-3.0,31.74,0.0,31.89,-16.0,3915.12,0.0,3990.79,-2.0,3991.77,-2.0,1.02,4.0,31.74,10.0,31.87,-1.0,3911.22,32.0,3983.66,-3.0,3.29,0.0,0.96,1.0,31.72,-5.0,31.83,-3.0,3913.17,-32.0,3975.98,4.0,3995.91,-5.0,0.97,5.0,31.68,-19.0,31.81,-4.0,3913.17,0.0,3992.38,8.0,3983.23,-5.0,1.0,1.0,31.73,-1.0,31.82,10.0,3913.17,16.0,4.09,0.0,3979.76,2.0
0,31.5,-10.0,31.23,13.0,31.83,5.0,3904.39,-16.0,148.72,27.0,3944.94,2.0,31.25,-3.0,31.39,-2.0,31.84,22.0,3903.41,-32.0,228.9,42.0,3986.46,17.0,30.96,16.0,31.81,5.0,31.79,19.0,3903.41,0.0,186.04,-90.0,59.82,0.0,30.89,-8.0,31.57,-2.0,31.81,-4.0,3903.41,48.0,38.35,22.0,83.9,2.0,30.86,21.0,31.61,10.0,31.85,-22.0,3903.41,0.0,104.39,26.0,93.23,-2.0
0,31.36,16.0,31.75,-7.0,30.73,-7.0,3905.37,-16.0,49.39,25.0,46.83,17.0,31.64,14.0,31.62,13.0,30.55,-15.0,3904.39,0.0,40.79,-23.0,136.65,40.0,0.02,28.0,31.6,14.0,30.53,11.0,3904.39,0.0,58.72,13.0,265.12,29.0,0.32,31.0,31.61,-27.0,31.11,-34.0,3904.39,0.0,73.54,-64.0,293.17,0.0,0.52,-15.0,31.6,45.0,31.48,37.0,3904.39,-48.0,3993.72,-18.0,216.34,-17.0
0,0.82,-16.0,31.18,22.0,31.94,-15.0,3904.39,32.0,3962.93,-5.0,3989.21,-7.0,0.67,-46.0,30.98,24.0,31.8,108.0,3904.39,32.0,3925.12,23.0,9.45,-10.0,0.51,-4.0,31.12,-13.0,31.73,-13.0,3904.39,16.0,3930.73,4.0,3986.59,4.0,0.52,1.0,30.96,-17.0,31.76,-8.0,3906.34,-16.0,3941.46,13.0,3994.88,2.0,0.33,-18.0,31.05,-22.0,31.83,-2.0,3905.37,0.0,3981.22,48.0,3965.73,-14.0
1,31.68,-15.0,31.73,-18.0,0.3,-12.0,3899.51,-16.0,3893.96,-31.0,3956.16,-16.0,31.32,-14.0,31.71,-9.0,31.98,15.0,3896.59,64.0,3813.11,-40.0,3936.52,28.0,30.06,16.0,31.32,-9.0,31.46,1.0,3899.51,0.0,3439.21,-133.0,3930.24,-43.0,30.85,-30.0,31.39,32.0,31.77,-10.0,3899.51,-16.0,3849.27,154.0,3898.23,23.0,31.18,5.0,31.51,31.0,31.5,-14.0,3898.54,0.0,79.7,-36.0,3945.61,18.0
1,0.96,2.0,31.65,-6.0,31.71,24.0,3925.85,16.0,3993.48,-2.0,3.11,-1.0,0.96,16.0,31.64,-19.0,31.72,-12.0,3925.85,0.0,3990.3,-3.0,1.1,-1.0,0.98,4.0,31.64,-14.0,31.7,13.0,3926.83,-16.0,3994.7,3.0,5.0,3.0,0.96,-3.0,31.64,-6.0,31.71,-1.0,3928.78,-32.0,2.74,0.0,8.96,1.0,0.96,4.0,31.64,2.0,31.73,-36.0,3927.8,-16.0,6.89,3.0,11.04,6.0
1,0.95,-62.0,31.66,37.0,0.07,63.0,3908.29,-32.0,2.44,65477.0,3995.3,-54.0,0.96,-9.0,31.68,-23.0,0.07,26.0,3907.32,0.0,3991.52,-7.0,3995.24,-5.0,0.96,-3.0,31.65,3.0,0.07,1.0,3907.32,-32.0,3992.5,0.0,3994.82,-3.0,0.96,-17.0,31.65,-5.0,0.06,4.0,3907.32,-16.0,2.99,-1.0,3994.7,-3.0,0.97,-17.0,31.65,8.0,0.05,15.0,3906.34,0.0,5.49,2.0,3992.56,4.0
0,0.39,0.0,31.37,-36.0,31.32,-25.0,3904.39,0.0,3921.83,32.0,63.6,7.0,0.45,-18.0,31.34,-5.0,31.19,15.0,3906.34,-48.0,53.54,-16.0,67.2,1.0,0.52,-21.0,31.45,-6.0,31.36,3.0,3905.37,-32.0,30.12,-45.0,53.48,7.0,0.46,1.0,31.36,-12.0,31.43,1.0,3904.39,0.0,3992.07,3.0,37.87,-15.0,0.54,-6.0,31.41,4.0,31.53,41.0,3906.34,-32.0,17.2,2.0,20.49,-9.0
1,31.67,-7.0,31.3,6.0,0.31,-24.0,3905.37,-32.0,3958.35,-33.0,3970.18,-1.0,31.66,-7.0,31.18,11.0,0.26,-18.0,3905.37,-16.0,3924.51,-24.0,3944.15,0.0,31.56,-18.0,30.96,21.0,0.13,-24.0,3904.39,0.0,3919.76,-9.0,3945.43,-1.0,31.54,-10.0,31.13,-23.0,31.94,-31.0,3904.39,16.0,3862.32,26.0,3924.33,-11.0,31.52,-1.0,31.54,3.0,31.89,-10.0,3905.37,0.0,3934.33,-76.0,3968.84,-2.0
1,1.0,-9.0,31.83,7.0,0.11,-7.0,3928.78,32.0,9.76,4.0,27.68,1.0,0.99,5.0,31.82,9.0,0.1,-3.0,3929.76,0.0,7.62,2.0,39.21,2.0,0.97,29.0,31.84,-55.0,0.15,-56.0,3930.73,-16.0,13.35,13.0,58.9,117.0,0.88,6.0,31.82,0.0,0.16,-7.0,3929.76,-16.0,22.07,7.0,88.72,8.0,0.78,-1.0,31.86,-7.0,0.28,-28.0,3927.8,32.0,47.01,10.0,120.24,15.0
1,0.93,-7.0,31.7,24.0,0.02,-14.0,3911.22,-32.0,3967.5,1.0,3985.43,1.0,0.8,-64.0,31.68,68.0,31.97,21.0,3909.27,0.0,3979.88,-18.0,3979.76,-6.0,0.67,-15.0,31.54,-19.0,31.94,-5.0,3909.27,-16.0,3960.79,-31.0,3982.44,-5.0,0.58,-18.0,31.39,18.0,31.84,-28.0,3908.29,0.0,3910.06,-14.0,3952.2,-9.0,0.27,-59.0,31.39,-75.0,31.69,10.0,3910.24,-32.0,3968.6,-1.0,3953.23,-26.0
1,0.09,2.0,30.93,16.0,31.98,-29.0,3894.63,16.0,3968.17,12.0,3951.04,-4.0,0.13,2.0,30.66,23.0,31.84,-13.0,3895.61,0.0,3956.71,42.0,3955.06,21.0,0.11,-11.0,31.01,-1.0,31.84,0.0,3894.63,16.0,3979.27,-15.0,3972.07,2.0,0.01,5.0,31.11,-4.0,31.84,4.0,3897.56,0.0,41.1,-13.0,3991.1,0.0,31.99,1.0,31.11,10.0,31.89,-9.0,3896.59,-32.0,8.35,-1.0,3967.26,-15.0
0,0.64,4.0,31.41,3.0,0.35,1.0,3904.39,16.0,3991.65,1.0,0.61,65524.0,0.7,1.0,31.4,-1.0,0.36,31.0,3903.41,0.0,3994.57,-4.0,0.24,1.0,0.67,4.0,31.41,-5.0,0.4,10.0,3905.37,-32.0,2.07,-2.0,3992.8,-6.0,0.67,11.0,31.41,9.0,0.37,-27.0,3903.41,16.0,5.98,2.0,0.3,-5.0,0.69,10.0,31.4,1.0,0.37,-6.0,3905.37,-48.0,0.49,-5.0,3992.5,-2.0
1,31.96,3.0,31.53,-59.0,0.42,6.0,3903.41,16.0,3907.07,9.0,37.13,2.0,31.81,-17.0,31.68,-1.0,0.33,-3.0,3902.44,0.0,3957.8,-25.0,92.56,12.0,31.25,-12.0,31.7,-35.0,0.13,-36.0,3904.39,0.0,3891.95,-50.0,116.28,13.0,30.28,-1.0,31.37,-15.0,31.94,8.0,3903.41,-32.0,3684.33,-21.0,81.1,-35.0,30.86,30.0,31.53,14.0,31.95,14.0,3903.41,0.0,3893.72,70.0,3966.22,-12.0
0,31.79,-8.0,31.0,-19.0,31.76,21.0,3902.44,-32.0,8.35,-10.0,3993.6,1.0,31.8,6.0,30.95,-3.0,31.79,22.0,3902.44,0.0,3987.13,-38.0,0.18,65531.0,31.9,-6.0,30.94,11.0,31.76,-19.0,3901.46,32.0,3968.11,-24.0,14.39,6.0,0.01,4.0,30.99,1.0,31.83,-4.0,3903.41,0.0,3970.37,18.0,10.55,-4.0,0.11,6.0,31.09,0.0,31.79,2.0,3901.46,32.0,3969.09,8.0,9.02,0.0
0,30.92,-7.0,31.73,5.0,31.84,-29.0,3903.41,16.0,167.68,-3.0,70.61,-13.0,31.06,13.0,31.76,6.0,31.85,-2.0,3903.41,-48.0,120.0,-10.0,40.61,-2.0,31.2,-14.0,31.76,-2.0,31.84,7.0,3903.41,16.0,100.49,-6.0,26.34,4.0,31.11,3.0,31.71,-8.0,31.84,-3.0,3903.41,-16.0,81.89,-9.0,13.35,-4.0,31.05,6.0,31.66,-8.0,31.83,1.0,3902.44,32.0,49.27,-8.0,3.54,0.0
0,0.08,5.0,31.06,3.0,31.98,10.0,3901.46,32.0,23.78,-10.0,20.3,-4.0,0.09,-3.0,31.13,-24.0,31.99,18.0,3901.46,16.0,19.27,-51.0,15.85,-6.0,0.09,-15.0,31.25,37.0,0.08,-43.0,3901.46,16.0,31.4,-64.0,17.2,-2.0,0.02,-7.0,30.91,-7.0,0.13,-6.0,3900.49,32.0,3914.94,23.0,3986.71,-12.0,0.08,-7.0,30.99,-4.0,31.98,6.0,3904.39,-16.0,18.48,12.0,15.67,10.0
0,31.34,16.0,31.41,5.0,31.58,-14.0,3902.44,-32.0,6.4,4.0,3987.5,1.0,31.34,-9.0,31.35,-3.0,31.48,-6.0,3902.44,0.0,5.24,-5.0,3993.72,6.0,31.36,6.0,31.39,9.0,31.48,2.0,3902.44,-32.0,22.8,-2.0,21.83,10.0,31.35,-3.0,31.41,2.0,31.5,18.0,3904.39,-16.0,30.91,2.0,36.89,3.0,31.25,-8.0,31.43,21.0,31.5,6.0,3904.39,-48.0,27.8,-4.0,35.67,2.0
0,31.01,8.0,31.84,24.0,31.11,-63.0,3905.37,-16.0,192.07,-70.0,36.65,42.0,31.14,4.0,31.62,-45.0,31.21,-46.0,3906.34,0.0,174.33,-16.0,34.45,8.0,31.39,17.0,31.2,-6.0,31.26,-13.0,3906.34,-32.0,114.27,28.0,12.62,-20.0,31.68,5.0,31.35,43.0,31.41,15.0,3906.34,-32.0,107.62,-39.0,3.84,21.0,31.81,-19.0,31.42,-24.0,31.59,7.0,3906.34,-16.0,45.18,-25.0,3976.4,-13.0
0,31.1,-22.0,31.72,-1.0,31.94,-14.0,3904.39,-32.0,3970.79,-2.0,3988.48,-2.0,31.04,10.0,31.68,6.0,31.93,9.0,3904.39,-32.0,3969.09,1.0,3980.79,-4.0,31.04,-4.0,31.66,3.0,31.89,-5.0,3904.39,-32.0,3948.66,4.0,3976.46,0.0,31.06,10.0,31.69,12.0,31.86,1.0,3904.39,-16.0,3947.01,-5.0,3973.84,1.0,31.08,7.0,31.68,12.0,31.85,10.0,3903.41,0.0,3955.06,6.0,3980.73,1.0
0,0.07,15.0,31.28,-32.0,30.98,70.0,3906.34,-16.0,212.74,-37.0,51.65,12.0,31.84,2.0,31.06,174.0,31.61,38.0,3904.39,48.0,251.04,149.0,35.0,7.0,31.45,-34.0,30.99,2.0,31.76,-44.0,3906.34,16.0,3968.78,95.0,3992.01,-6.0,31.54,15.0,30.9,51.0,31.83,77.0,3908.29,-16.0,120.43,22.0,3975.18,3.0,0.02,25.0,31.23,17.0,0.02,0.0,3906.34,-16.0,85.12,-82.0,3977.93,7.0
0,0.65,19.0,31.4,-21.0,0.39,23.0,3903.41,0.0,20.85,-7.0,3984.15,0.0,0.66,-4.0,31.51,5.0,0.44,19.0,3903.41,16.0,51.22,-17.0,3989.09,1.0,0.64,-15.0,31.49,-1.0,0.46,35.0,3903.41,16.0,45.43,2.0,3992.44,2.0,0.65,5.0,31.5,-6.0,0.48,-14.0,3904.39,-16.0,7.99,17.0,3993.72,2.0,0.68,-17.0,31.66,11.0,0.47,-13.0,3902.44,32.0,3983.72,-21.0,14.51,16.0
0,0.26,-1.0,31.01,-17.0,0.08,34.0,3904.39,-16.0,127.38,-22.0,3995.73,-2.0,0.04,53.0,31.07,-28.0,0.31,64866.0,3903.41,32.0,185.98,93.0,3990.18,-65383.0,0.19,-57.0,30.99,37.0,0.23,36.0,3903.41,16.0,365.12,-34.0,61.28,10.0,0.06,-3.0,31.51,11.0,0.58,52.0,3905.37,-48.0,58.66,-1.0,42.99,5.0,0.1,29.0,31.91,1.0,0.54,-5.0,3902.44,32.0,3937.62,-111.0,29.94,3.0
1,1.01,-5.0,31.81,11.0,31.93,20.0,3921.95,32.0,3994.33,6.0,0.85,4.0,1.0,13.0,31.81,-21.0,31.94,-10.0,3924.88,-16.0,3994.63,-5.0,1.46,-3.0,1.0,-8.0,31.8,-3.0,31.93,-2.0,3920.98,32.0,0.3,2.0,3995.12,0.0,1.0,4.0,31.8,-1.0,31.93,6.0,3921.95,16.0,3994.21,-1.0,3989.39,2.0,1.01,-7.0,31.81,-7.0,31.91,-20.0,3921.95,0.0,3995.67,0.0,3987.13,0.0
1,0.72,-6.0,31.67,17.0,0.23,69.0,3910.24,16.0,3991.95,23.0,35.49,-6.0,0.5,-12.0,31.79,12.0,0.21,-4.0,3912.2,-16.0,3989.15,-9.0,54.15,8.0,0.28,-65.0,31.86,-30.0,31.92,-65367.0,3910.24,48.0,3922.62,-63.0,81.77,-45.0,31.08,-285.0,31.15,-1554.0,0.71,2530.0,3912.2,16.0,205.3,986.0,305.98,47.0,31.92,-415.0,30.93,615.0,1.31,-331.0,3911.22,0.0,54.82,-270.0,97.26,-1.0
1,31.58,12.0,31.13,6.0,0.16,28.0,3907.32,-48.0,3964.82,54.0,3850.55,-6.0,31.41,10.0,31.17,-12.0,0.15,2.0,3905.37,-32.0,3937.68,14.0,3856.77,7.0,31.07,0.0,31.25,2.0,31.97,-22.0,3904.39,0.0,3850.61,-36.0,3930.0,16.0,30.92,-3.0,31.34,23.0,31.97,12.0,3904.39,0.0,19.82,-5.0,2.99,19.0,31.2,-13.0,31.56,-16.0,0.12,29.0,3904.39,16.0,148.9,76.0,34.82,1.0
1,31.97,0.0,31.59,-7.0,0.31,-35.0,3900.49,-16.0,3862.8,-20.0,10.61,7.0,31.64,-14.0,31.08,9.0,0.36,-8.0,3901.46,0.0,3964.21,49.0,73.17,11.0,31.24,-37.0,31.7,-6.0,32.0,-2.0,3898.54,32.0,3960.0,-48.0,110.49,15.0,30.48,10.0,31.34,2.0,31.86,-21.0,3898.54,16.0,3803.29,-34.0,3993.72,-36.0,31.05,5.0,31.86,-9.0,31.89,-6.0,3899.51,-16.0,3847.13,-7.0,3949.57,-5.0
1,31.77,-6.0,31.12,-24.0,0.38,-20.0,3892.68,48.0,3906.16,-11.0,3931.46,4.0,31.71,23.0,30.94,-20.0,0.07,-9.0,3895.61,-32.0,3882.07,-23.0,3917.87,-2.0,0.56,-2.0,30.93,-18.0,31.53,-22.0,3892.68,0.0,3866.22,42.0,3977.01,10.0,32.0,-25.0,31.25,9.0,31.7,26.0,3892.68,48.0,53.35,58.0,3981.22,-25.0,0.04,25.0,31.42,-31.0,0.4,-51.0,3893.66,32.0,173.48,23.0,3898.6,-8.0
1,31.58,-12.0,31.6,-16.0,0.13,-26.0,3898.54,16.0,3884.21,0.0,45.43,8.0,30.97,-22.0,31.73,-1.0,31.98,6.0,3899.51,-32.0,3781.1,-73.0,59.94,-4.0,30.5,-22.0,31.42,-34.0,31.77,4.0,3900.49,-32.0,3629.76,84.0,3995.06,-40.0,30.75,25.0,31.6,64.0,31.68,1.0,3899.51,0.0,3980.3,-4.0,3944.94,15.0,31.3,1.0,31.88,9.0,31.71,2.0,3901.46,-48.0,3911.89,-51.0,3939.39,-4.0
1,0.9,-5.0,31.48,45.0,0.02,17.0,3903.41,0.0,3985.85,28.0,3988.11,-1.0,0.88,9.0,31.44,-6.0,0.03,-14.0,3903.41,16.0,4.02,10.0,1.52,1.0,0.85,-47.0,31.44,47.0,0.04,59.0,3902.44,32.0,9.76,-32.0,3988.78,-104.0,0.79,3.0,31.61,-8.0,31.98,-65502.0,3902.44,0.0,2.99,-43.0,2.2,2.0,0.91,-21.0,31.5,-23.0,0.03,0.0,3902.44,16.0,1.22,-3.0,3995.91,-65533.0
1,0.92,3.0,31.5,78.0,31.8,32.0,3924.88,16.0,24.57,31.0,33.78,-3.0,0.97,11.0,31.6,18.0,31.83,7.0,3927.8,48.0,23.78,0.0,54.51,12.0,0.96,-11.0,31.63,5.0,31.94,32.0,3927.8,-32.0,37.62,4.0,79.33,16.0,0.99,-4.0,31.7,3.0,0.09,-29.0,3928.78,-64.0,51.52,2.0,119.21,19.0,0.74,-20.0,31.74,-3.0,0.24,13.0,3925.85,32.0,64.63,14.0,189.33,28.0
1,1.0,2.0,31.56,19.0,31.96,5.0,3910.24,0.0,10.37,-33.0,3983.11,0.0,1.06,8.0,31.78,-49.0,31.85,17.0,3910.24,16.0,3992.8,-40.0,13.66,-8.0,1.03,-8.0,31.81,-12.0,31.99,7.0,3910.24,16.0,60.98,-24.0,54.7,7.0,1.02,15.0,31.82,47.0,0.17,0.0,3910.24,16.0,62.2,51.0,47.68,8.0,0.88,1.0,0.03,5.0,0.13,19.0,3911.22,-32.0,6.22,4.0,34.82,2.0
1,0.79,-5.0,31.64,16.0,0.16,33.0,3931.71,-32.0,23.84,2.0,90.49,8.0,0.74,-8.0,31.56,14.0,0.28,14.0,3930.73,-16.0,31.4,-2.0,95.98,-5.0,0.54,15.0,31.71,-52.0,0.4,5.0,3931.71,-48.0,56.89,4.0,127.62,2.0,0.19,-45.0,31.73,35.0,0.61,-10.0,3931.71,0.0,76.04,-11.0,133.84,-12.0,31.86,-105.0,31.38,59.0,0.85,67.0,3929.76,16.0,158.35,136.0,159.63,27.0
1,31.88,0.0,31.39,-22.0,0.31,15.0,3895.61,16.0,3956.34,-16.0,3980.67,-2.0,31.83,3.0,31.14,-15.0,0.21,16.0,3894.63,0.0,3885.0,1.0,3949.88,-7.0,31.74,-11.0,30.78,-31.0,0.04,12.0,3893.66,32.0,3875.98,6.0,3925.85,-13.0,31.75,-19.0,30.87,37.0,31.89,25.0,3894.63,0.0,3893.78,19.0,3908.84,4.0,31.78,-25.0,31.06,-11.0,31.76,-31.0,3895.61,-32.0,3879.51,6.0,3900.91,9.0
1,31.65,11.0,31.19,-4.0,0.14,-23.0,3902.44,0.0,3970.24,9.0,3967.87,-13.0,31.57,1.0,31.05,-14.0,0.13,-11.0,3900.49,16.0,3967.87,10.0,3930.37,1.0,31.62,4.0,31.15,9.0,0.16,-5.0,3903.41,-32.0,3974.51,10.0,3907.74,-9.0,31.83,56.0,31.22,76.0,0.17,-31.0,3903.41,-32.0,3957.56,-13.0,3896.1,28.0,0.33,-25.0,30.94,-7.0,31.62,-64.0,3900.49,0.0,30.67,18.0,3854.76,1.0
1,0.09,-20.0,31.46,2.0,0.64,9.0,3907.32,0.0,34.39,-9.0,14.94,1.0,0.0,65511.0,31.5,-8.0,0.67,17.0,3909.27,-32.0,3975.79,4.0,24.15,2.0,31.87,18.0,31.52,22.0,0.84,-17.0,3908.29,0.0,16.46,-12.0,3995.73,-17.0,31.98,-11.0,31.51,-73.0,0.7,15.0,3908.29,-32.0,3912.56,-30.0,3980.12,6.0,31.97,-4.0,31.31,30.0,0.7,-10.0,3907.32,0.0,51.16,-16.0,3987.93,4.0
1,0.88,-27.0,31.44,40.0,0.07,39.0,3910.24,-48.0,3990.61,-38.0,7.93,-30.0,0.85,-6.0,31.48,1.0,0.08,17.0,3907.32,32.0,3995.61,-2.0,4.94,-1.0,0.84,22.0,31.47,-1.0,0.1,-4.0,3909.27,-32.0,1.4,-2.0,0.67,-5.0,0.85,0.0,31.48,-5.0,0.11,1.0,3909.27,-16.0,2.26,-4.0,0.12,2.0,0.85,-6.0,31.48,4.0,0.11,-12.0,3909.27,-16.0,1.52,-2.0,0.43,2.0
1,31.87,-17.0,31.15,-9.0,0.1,23.0,3897.56,0.0,3855.85,74.0,44.39,-1.0,31.48,-53.0,31.33,34.0,0.09,-17.0,3898.54,32.0,5.37,17.0,70.61,14.0,30.48,-50.0,31.49,-4.0,31.99,-44.0,3896.59,48.0,3874.21,-42.0,57.99,-19.0,30.7,-4.0,31.6,-34.0,31.96,-6.0,3899.51,16.0,3793.35,51.0,3962.8,-16.0,30.91,1.0,31.63,-23.0,31.59,-3.0,3898.54,16.0,3745.91,-29.0,3902.5,-2.0
1,31.97,-2.0,31.32,1.0,0.56,1.0,3903.41,32.0,15.12,15.0,3993.35,20.0,0.02,8.0,31.6,-4.0,0.43,15.0,3905.37,-16.0,3968.35,-63.0,3986.34,2.0,0.04,-13.0,30.99,-2.0,0.58,5.0,3904.39,32.0,3982.56,25.0,3989.94,1.0,0.02,7.0,31.31,3.0,0.54,1.0,3903.41,64.0,3960.79,-9.0,8.17,12.0,0.01,3.0,31.38,18.0,0.49,-15.0,3905.37,16.0,3993.23,-1.0,34.76,5.0
0,0.73,18.0,31.5,11.0,0.36,-15.0,3903.41,0.0,6.59,0.0,3991.16,-2.0,0.69,10.0,31.39,0.0,0.39,20.0,3904.39,0.0,1.89,6.0,1.71,-4.0,0.71,13.0,31.5,-9.0,0.36,14.0,3902.44,32.0,5.37,2.0,3994.45,2.0,0.69,11.0,31.42,20.0,0.36,37.0,3902.44,0.0,0.98,14.0,3989.88,4.0,0.71,3.0,31.4,-11.0,0.38,25.0,3902.44,48.0,3990.79,2.0,5.06,4.0
0,31.58,-2.0,31.09,36.0,31.54,10.0,3906.34,-16.0,152.93,4.0,67.8,-6.0,31.43,5.0,31.24,-2.0,31.74,-20.0,3904.39,-16.0,84.63,-49.0,68.48,7.0,31.25,-21.0,31.13,-15.0,31.87,7.0,3903.41,0.0,55.98,8.0,70.06,-2.0,31.33,18.0,31.3,26.0,31.81,22.0,3903.41,32.0,5.85,-45.0,53.6,3.0,31.53,-2.0,31.28,-2.0,31.81,-9.0,3905.37,-16.0,3956.28,12.0,60.06,-7.0
1,31.58,12.0,31.13,6.0,0.16,28.0,3907.32,-48.0,3964.82,54.0,3850.55,-6.0,31.41,10.0,31.17,-12.0,0.15,2.0,3905.37,-32.0,3937.68,14.0,3856.77,7.0,31.07,0.0,31.25,2.0,31.97,-22.0,3904.39,0.0,3850.61,-36.0,3930.0,16.0,30.92,-3.0,31.34,23.0,31.97,12.0,3904.39,0.0,19.82,-5.0,2.99,19.0,31.2,-13.0,31.56,-16.0,0.12,29.0,3904.39,16.0,148.9,76.0,34.82,1.0
0,0.56,-4.0,31.15,0.0,31.89,0.0,3905.37,32.0,3965.67,-7.0,2.56,1.0,0.56,14.0,31.13,-9.0,31.91,13.0,3905.37,32.0,3984.63,4.0,1.28,-1.0,0.56,20.0,31.14,-2.0,31.9,-20.0,3905.37,32.0,3988.9,3.0,3994.51,1.0,0.55,3.0,31.14,-19.0,31.88,23.0,3907.32,-32.0,3988.84,3.0,3994.76,-1.0,0.56,-5.0,31.1,1.0,31.9,-2.0,3908.29,-16.0,3991.46,7.0,3993.72,6.0
1,31.97,10.0,31.2,11.0,0.57,-17.0,3897.56,-32.0,3985.79,-9.0,3970.55,-2.0,0.1,5.0,31.26,-4.0,0.45,-3.0,3896.59,0.0,3935.18,-12.0,3967.5,2.0,0.13,10.0,31.12,-29.0,0.44,27.0,3897.56,-32.0,3955.0,-5.0,3977.62,-12.0,31.95,8.0,31.17,26.0,0.33,1.0,3896.59,0.0,15.12,-5.0,3970.67,8.0,31.87,-3.0,30.71,-14.0,0.44,-38.0,3895.61,32.0,3939.88,38.0,3972.93,3.0
1,0.92,3.0,31.5,16.0,31.89,-28.0,3910.24,0.0,7.68,1.0,3988.29,-3.0,0.9,25.0,31.68,-140.0,31.91,32.0,3910.24,0.0,6.65,-7.0,3987.62,-6.0,1.03,7.0,31.68,4.0,31.9,-1.0,3910.24,16.0,14.15,0.0,3985.3,-3.0,0.99,7.0,31.74,1.0,31.87,1.0,3910.24,-16.0,5.0,1.0,3992.99,2.0,1.01,-19.0,31.74,-16.0,31.85,14.0,3911.22,-32.0,3995.06,0.0,3995.67,6.0
0,31.46,-14.0,31.15,0.0,31.73,-5.0,3900.49,16.0,40.98,1.0,32.62,-3.0,31.46,13.0,31.23,-16.0,31.72,7.0,3899.51,32.0,13.72,-9.0,3987.38,-11.0,31.84,30.0,31.08,19.0,31.8,-6.0,3902.44,0.0,43.17,30.0,3988.23,11.0,31.91,1.0,30.9,20.0,31.9,-7.0,3901.46,16.0,70.91,25.0,10.55,13.0,31.76,-17.0,31.2,-13.0,0.23,12.0,3902.44,0.0,37.01,-23.0,16.34,-11.0
0,31.68,-3.0,31.54,-19.0,31.03,0.0,3904.39,-32.0,3978.78,37.0,3995.85,-1.0,31.68,8.0,31.53,10.0,31.07,16.0,3904.39,0.0,3980.98,-15.0,1.28,-2.0,31.66,5.0,31.59,7.0,31.04,-17.0,3902.44,48.0,3958.66,22.0,2.44,-2.0,31.69,-16.0,31.65,68.0,30.99,46.0,3903.41,0.0,3975.91,-35.0,3.48,-5.0,31.65,-7.0,31.6,0.0,31.03,24.0,3901.46,32.0,4.51,28.0,0.0,65535.0
0,31.55,19.0,31.56,5.0,0.67,6.0,3909.27,-16.0,44.51,9.0,11.83,-11.0,31.48,-6.0,31.46,23.0,0.65,8.0,3908.29,0.0,3985.12,30.0,3986.77,6.0,31.5,2.0,31.57,6.0,0.63,-6.0,3906.34,0.0,3992.8,-2.0,3990.24,-10.0,31.52,10.0,31.58,-6.0,0.64,4.0,3906.34,0.0,3990.98,-1.0,3982.32,-2.0,31.56,0.0,31.57,0.0,0.65,7.0,3906.34,32.0,3991.95,4.0,3987.26,2.0
0,0.95,-28.0,31.28,-19.0,0.02,11.0,3904.39,0.0,3982.2,58.0,3985.91,-21.0,0.58,-8.0,31.84,15.0,31.54,19.0,3902.44,16.0,74.27,24.0,3933.72,-16.0,0.7,-8.0,31.91,-16.0,31.62,-15.0,3902.44,-16.0,55.18,-30.0,3895.0,-6.0,0.56,7.0,31.65,-28.0,31.48,5.0,3903.41,0.0,3985.79,-2.0,3849.33,-21.0,0.41,-15.0,31.22,-5.0,31.09,6.0,3903.41,0.0,3947.8,-2.0,3870.43,-3.0
0,31.57,22.0,31.39,-9.0,0.27,-71.0,3904.39,32.0,3.17,65443.0,3920.49,-6.0,31.91,51.0,31.22,-58.0,0.14,13.0,3901.46,64.0,21.1,35.0,3919.82,6.0,0.22,-3.0,31.34,21.0,0.43,11.0,3905.37,-48.0,148.05,-41.0,3908.66,7.0,0.36,-29.0,31.43,-51.0,0.49,12.0,3903.41,16.0,68.23,8.0,3962.26,20.0,0.17,8.0,31.27,-7.0,0.54,-9.0,3904.39,0.0,3973.35,3.0,3955.79,11.0
1,31.91,15.0,31.21,-34.0,0.63,-29.0,3902.44,0.0,3955.85,24.0,3975.3,-9.0,31.94,-2.0,31.24,-1.0,0.55,-14.0,3902.44,16.0,3982.2,8.0,3970.12,4.0,31.9,4.0,31.26,-5.0,0.54,-14.0,3903.41,16.0,3983.23,-5.0,3968.54,-3.0,31.87,14.0,31.04,-28.0,0.54,37.0,3903.41,0.0,3941.46,8.0,3949.45,-8.0,31.92,7.0,31.34,4.0,0.41,22.0,3903.41,16.0,3945.79,0.0,3967.74,13.0
0,0.5,25.0,31.19,-58.0,31.72,-69.0,3905.37,-16.0,115.91,12.0,3966.04,31.0,0.44,-6.0,30.82,-125.0,31.61,-37.0,3904.39,0.0,3958.41,22.0,82.2,22.0,0.3,14.0,31.03,-22.0,31.87,45.0,3904.39,0.0,3731.4,-86.0,48.66,-37.0,0.24,22.0,31.09,-21.0,31.73,-74.0,3904.39,-16.0,3898.48,26.0,3920.73,-5.0,0.47,-56.0,30.73,14.0,31.21,-8.0,3905.37,-32.0,120.3,44.0,3936.95,71.0
1,0.8,-263.0,0.17,-45.0,31.82,-64973.0,3915.12,0.0,40.18,20.0,39.39,-277.0,0.15,-23.0,31.97,-65404.0,31.99,-201.0,3915.12,0.0,159.94,9.0,3940.85,-45.0,28.58,3367.0,4.56,54551.0,0.17,62713.0,3915.12,-32.0,668.41,-28.0,3623.96,1079.0,0.18,-233.0,31.33,-64021.0,0.41,135.0,3916.1,-32.0,3796.34,-283.0,8.35,64787.0,0.41,-120.0,1.48,-555.0,31.56,18.0,3915.12,-32.0,28.6,70.0,7.99,34.0
0,31.81,-14.0,31.36,28.0,31.88,-3.0,3901.46,32.0,3960.73,-25.0,3910.98,-14.0,31.3,-10.0,31.45,-3.0,31.72,-19.0,3903.41,-32.0,3818.11,-24.0,3911.34,-3.0,30.92,16.0,31.53,-19.0,31.5,36.0,3901.46,16.0,3980.24,-17.0,3899.88,55.0,30.98,-40.0,31.77,-15.0,31.7,28.0,3904.39,0.0,3918.6,-19.0,3959.7,0.0,31.16,-1.0,31.59,1.0,31.83,23.0,3904.39,0.0,3990.18,6.0,3979.21,-4.0
0,31.56,8.0,31.17,-12.0,31.41,8.0,3902.44,32.0,3961.65,-25.0,3989.33,1.0,31.71,23.0,31.29,5.0,31.28,-28.0,3904.39,-16.0,3843.11,-81.0,13.35,2.0,31.62,3.0,31.38,54.0,31.18,-5.0,3903.41,0.0,3871.16,55.0,6.89,1.0,31.61,-2.0,31.52,5.0,31.12,-17.0,3903.41,16.0,3983.96,18.0,3.17,-4.0,31.53,-32.0,31.48,3.0,31.16,-53.0,3902.44,0.0,3966.71,-19.0,3984.33,5.0
1,0.99,-3.0,31.74,0.0,31.89,-16.0,3915.12,0.0,3990.79,-2.0,3991.77,-2.0,1.02,4.0,31.74,10.0,31.87,-1.0,3911.22,32.0,3983.66,-3.0,3.29,0.0,0.96,1.0,31.72,-5.0,31.83,-3.0,3913.17,-32.0,3975.98,4.0,3995.91,-5.0,0.97,5.0,31.68,-19.0,31.81,-4.0,3913.17,0.0,3992.38,8.0,3983.23,-5.0,1.0,1.0,31.73,-1.0,31.82,10.0,3913.17,16.0,4.09,0.0,3979.76,2.0
1,31.58,7.0,31.49,6.0,0.02,-8.0,3894.63,16.0,3928.96,-6.0,3920.67,1.0,31.15,-30.0,31.54,-7.0,31.85,3.0,3895.61,48.0,3827.74,-22.0,3905.91,-6.0,30.39,1.0,31.41,1.0,31.63,-5.0,3894.63,32.0,3748.66,6.0,3886.59,-14.0,30.8,4.0,31.65,19.0,31.77,-24.0,3895.61,0.0,3958.11,28.0,3904.21,7.0,31.25,21.0,31.75,-16.0,31.8,-2.0,3896.59,-32.0,3933.9,-4.0,3924.21,4.0
0,31.75,-19.0,31.08,-88.0,31.02,-2.0,3906.34,16.0,3866.52,-36.0,161.95,48.0,31.37,-20.0,30.83,-4.0,31.75,59.0,3906.34,16.0,3963.96,17.0,166.04,-60.0,31.78,-18.0,31.12,-47.0,31.61,-29.0,3904.39,16.0,3949.45,-8.0,3879.76,-46.0,31.81,-37.0,31.74,-59.0,31.05,47.0,3906.34,-16.0,3871.95,-98.0,3812.26,-18.0,0.18,-5.0,31.12,-19.0,30.96,21.0,3906.34,16.0,3887.32,103.0,3857.5,13.0
1,31.58,12.0,31.13,6.0,0.16,28.0,3907.32,-48.0,3964.82,54.0,3850.55,-6.0,31.41,10.0,31.17,-12.0,0.15,2.0,3905.37,-32.0,3937.68,14.0,3856.77,7.0,31.07,0.0,31.25,2.0,31.97,-22.0,3904.39,0.0,3850.61,-36.0,3930.0,16.0,30.92,-3.0,31.34,23.0,31.97,12.0,3904.39,0.0,19.82,-5.0,2.99,19.0,31.2,-13.0,31.56,-16.0,0.12,29.0,3904.39,16.0,148.9,76.0,34.82,1.0
0,0.2,4.0,30.97,-10.0,31.84,0.0,3900.49,32.0,3995.0,-11.0,34.88,-12.0,0.27,25.0,30.99,15.0,31.93,6.0,3904.39,-32.0,3983.29,-1.0,8.9,-9.0,0.14,-6.0,30.97,20.0,31.79,17.0,3902.44,16.0,39.51,-28.0,3994.94,4.0,0.27,-22.0,31.29,24.0,31.91,-11.0,3901.46,32.0,3981.71,-36.0,3970.67,-6.0,0.11,-12.0,31.12,-27.0,31.97,23.0,3903.41,0.0,84.57,1.0,3917.44,-18.0
1,0.09,2.0,30.93,16.0,31.98,-29.0,3894.63,16.0,3968.17,12.0,3951.04,-4.0,0.13,2.0,30.66,23.0,31.84,-13.0,3895.61,0.0,3956.71,42.0,3955.06,21.0,0.11,-11.0,31.01,-1.0,31.84,0.0,3894.63,16.0,3979.27,-15.0,3972.07,2.0,0.01,5.0,31.11,-4.0,31.84,4.0,3897.56,0.0,41.1,-13.0,3991.1,0.0,31.99,1.0,31.11,10.0,31.89,-9.0,3896.59,-32.0,8.35,-1.0,3967.26,-15.0
0,0.63,13.0,31.35,-18.0,0.33,7.0,3901.46,16.0,3987.01,-45.0,3993.23,2.0,0.55,7.0,31.18,26.0,0.24,21.0,3904.39,0.0,3971.77,12.0,0.85,11.0,0.58,-9.0,31.24,-12.0,0.21,-18.0,3904.39,-32.0,3929.02,3.0,1.59,-1.0,0.62,-2.0,31.24,-18.0,0.04,26.0,3904.39,-16.0,3921.77,-18.0,13.23,-2.0,0.6,26.0,31.11,19.0,31.92,35.0,3904.39,-16.0,3911.59,64.0,12.74,-2.0
1,31.87,-1.0,31.22,-22.0,0.34,16.0,3899.51,32.0,3964.51,-3.0,3947.74,-10.0,31.95,30.0,31.12,15.0,0.25,19.0,3901.46,0.0,3967.44,-19.0,3949.15,6.0,0.17,-18.0,30.92,-13.0,0.11,15.0,3900.49,-32.0,3946.95,-12.0,3979.09,7.0,0.08,10.0,31.08,14.0,0.08,-20.0,3900.49,-16.0,3985.06,-19.0,5.43,8.0,31.98,16.0,30.84,10.0,0.17,-19.0,3899.51,0.0,3926.22,21.0,36.52,8.0
1,0.95,16.0,31.6,-3.0,31.79,4.0,3922.93,-32.0,3995.49,6.0,1.89,-4.0,0.95,-8.0,31.63,-3.0,31.8,12.0,3920.98,0.0,3.66,-1.0,3.96,1.0,0.95,-15.0,31.63,-3.0,31.8,-23.0,3923.9,-16.0,0.0,5.0,4.33,-1.0,0.95,-6.0,31.63,4.0,31.79,-7.0,3921.95,32.0,3995.55,2.0,0.55,-3.0,0.95,-2.0,31.61,17.0,31.81,-1.0,3923.9,0.0,3995.06,4.0,3.35,-6.0
0,0.05,-12.0,31.02,-42.0,0.19,-10.0,3901.46,0.0,4.21,-48.0,12.74,-14.0,31.97,11.0,30.96,3.0,0.19,-16.0,3902.44,0.0,3933.41,-1.0,3979.45,-1.0,0.13,9.0,31.07,9.0,0.05,-13.0,3902.44,0.0,3939.94,-18.0,3995.49,2.0,0.1,-2.0,30.98,-5.0,31.94,-16.0,3902.44,16.0,3970.37,4.0,4.45,2.0,0.04,8.0,31.01,6.0,31.95,6.0,3903.41,0.0,21.28,14.0,12.01,9.0
1,0.8,-263.0,0.17,-45.0,31.82,-64973.0,3915.12,0.0,40.18,20.0,39.39,-277.0,0.15,-23.0,31.97,-65404.0,31.99,-201.0,3915.12,0.0,159.94,9.0,3940.85,-45.0,28.58,3367.0,4.56,54551.0,0.17,62713.0,3915.12,-32.0,668.41,-28.0,3623.96,1079.0,0.18,-233.0,31.33,-64021.0,0.41,135.0,3916.1,-32.0,3796.34,-283.0,8.35,64787.0,0.41,-120.0,1.48,-555.0,31.56,18.0,3915.12,-32.0,28.6,70.0,7.99,34.0
