Time(ms),AccX(g),ΔAccX,AccY(g),ΔAccY,AccZ(g),ΔAccZ,GyrX(d/s),ΔGyrX,GyrY(d/s),ΔGyrY,GyrZ(d/s),ΔGyrZ
1751,31.58, 5,31.18, 9,31.63,-3,40.00,32,3993.29,-1,3982.99,-2
1856,31.62,-10,31.09,-5,31.62,-23,42.93,-48,1.10, 8,2.68,10
1961,31.64,-16,31.11,-11,31.53, 2,40.98, 0,11.83, 2,19.51,10
2066,31.57, 5,31.09,-9,31.62, 5,41.95,-32,20.30, 3,19.88, 0
2172,31.58,-5,31.16,-12,31.66,-9,40.98,-32,19.33,-5,11.59, 3
2276,31.63,-15,31.10,-10,31.68, 7,40.98, 0,11.71, 5,1.28, 1
2381,31.68,12,31.12,37,31.70,43,40.00, 0,11.04, 2,1.40,-13
2486,31.71, 4,31.09, 3,31.68,11,40.00,32,11.65,-1,9.39, 2
2591,31.76,10,31.07,-6,31.65, 0,42.93,-32,19.88, 0,39.33, 9
2695,31.76, 3,31.02, 3,31.76, 3,41.95,-32,29.09, 1,22.74,-22
2799,31.84,10,31.06, 0,31.79,10,40.98,16,21.28,-7,3992.80, 1
2903,31.90, 1,31.01, 6,31.75,-11,42.93,-16,3.66, 1,3987.56, 6
3009,31.85,-7,31.02, 8,31.83,-24,41.95,-32,2.50,-4,11.16, 2
3113,31.83, 0,31.01,-12,31.79,-11,40.98,32,5.91,-1,17.80,-1
3217,31.86,-9,30.99,-12,31.85,15,41.95,-32,3994.57,-1,3987.01,-2
3323,31.96,22,31.06, 4,31.82,11,42.93,-32,3.05,11,18.11,-8
3427,0.15,28,31.06,-27,31.73,-5,40.00,32,4.70,-5,89.94,-10
3531,31.85,13,31.05,-2,31.56,-11,39.02,32,3978.72, 9,140.06,22
3635,31.55,10,31.21,-18,31.53,-42,40.00,32,31.04,-2,135.61,-22
3739,31.43, 5,31.38,-13,31.56,-28,41.95, 0,35.91, 8,17.87,-1
3843,31.48, 3,31.29, 9,31.28,-15,40.98, 0,48.11, 1,3969.39,73
3947,31.34,-12,31.23,-8,31.57,-18,40.00,32,85.49,10,38.17,39
4053,31.00,-9,31.50, 2,31.78,11,41.95, 0,61.10,-21,30.79,-13
4157,31.09,-28,31.59,12,31.95,-24,41.95,-32,4.70,-17,3976.59,-32
4263,31.46,-5,31.69, 6,0.08,-27,40.00,16,3905.55,-31,3922.87,-11
4367,31.60, 2,31.64,-10,31.83,-14,39.02,16,3823.41, 1,3915.98,31
4471,31.31,-58,31.97,53,31.17,17,40.00,16,3765.12,-30,210.91,-11
4577,31.39,-10,1.00,17,31.47,-6,42.93,-32,3734.27,41,3990.61,28
4681,31.63,-6,1.48, 5,31.60,52,41.95, 0,3835.00,16,124.33,86
4787,31.46, 5,1.27,14,31.76,-23,40.98, 0,3842.50,-18,221.22,-6
4891,31.59,-19,1.15, 6,31.57, 4,41.95,-64,3862.13,17,201.59,-11
4995,31.64,-3,0.89,-1,31.62,-3,40.98, 0,3910.18, 8,110.12,-25
5099,31.57,-8,0.71,-25,31.62,-19,41.95, 0,3907.56, 5,40.18,-5
5203,31.53,-27,0.75,12,31.26,-34,41.95,-32,3952.13,23,92.62,-24
5309,31.74,-2,0.54, 5,30.92,-27,41.95,-32,55.98,32,3886.77,-74
5413,31.77, 3,1.16,22,31.08,39,41.95, 0,171.65,25,3782.07,-32
5517,31.82,-6,1.43, 3,31.51,-3,40.00,32,219.39, 7,3724.27,-3
5621,31.91, 6,1.31,-14,31.55,-14,40.98, 0,181.95, 1,3705.06,18
5727,0.10,-18,1.16,-20,31.64,-1,39.02,16,172.01,-3,3842.26,37
5831,31.81, 0,0.93,11,31.93,-2,40.98,-16,107.80,-16,3930.30,24
5935,31.61,-19,0.89,-1,0.28,25,40.00, 0,25.67,-21,3995.12,-65502
6039,31.47,-22,0.91, 8,0.17,-42,40.98, 0,3949.88,-16,74.63, 5
6145,31.50,25,1.14,-92,31.84,-34,40.98,16,3908.96,-3,120.30,22
6249,31.62,-16,1.05,-53,31.78,-4,40.98, 0,3925.85, 6,94.63,42
6353,31.61, 1,0.97, 4,31.74,12,39.02,16,3956.10, 7,58.60,13
6457,31.53,13,1.17,23,31.74,-15,42.93,-32,2.80,-9,62.50,-41
6561,31.51,32,0.87,-12,31.50,-5,40.00,32,10.06,11,3966.89,-30
6667,31.36,-11,0.77,-14,31.47,11,40.98, 0,43.66,11,3914.94,-10
6771,31.28,12,0.65,-10,31.90,-21,41.95,-32,58.48, 0,3964.76,-42
6875,31.38, 5,0.59,-5,0.21,21,40.98, 0,25.18,-7,3927.62, 2
6979,31.46, 9,0.33,-15,0.13,-20,40.00,16,3963.11,-9,3934.15,-1
7083,31.65,-6,31.92,-19,31.57,-35,40.00, 0,3943.11, 6,3972.50,-34
7187,0.00,-1,31.41,21,30.83, 7,40.98,16,32.80,32,3857.07,27
7293,31.48,-64,31.40,677,0.60,-87,40.00,32,117.13,-100,3772.80,161
7397,31.09,101,0.94,27,1.10,51,40.00,16,113.41,-28,3846.22,-58
7501,0.26,86,0.43, 1,0.62,-33,40.00, 0,48.29, 7,1.40,47
7605,30.12,1172,8.98,316,4.41,-1350,41.95,-48,3956.22,75,3930.79,128
7710,30.60,228,0.55,-162,0.03,-8,40.98,-16,6.04,-46,141.46,-175
7815,30.87,63,0.10,-15,0.14,16,40.98,-32,3987.93, 1,3971.89,-28
7919,31.11, 4,0.07,11,0.24, 1,39.02, 0,3990.18, 2,3959.45,16
8024,31.13,-20,32.00,-6,0.22, 1,41.95,-32,0.18, 3,3992.99,-9
8129,31.02,-4,32.00,-12,0.23, 2,40.00, 0,0.55,-1,4.39,-7
8234,31.17,32,31.97,13,0.26,-6,40.98, 0,0.12, 3,6.04, 6
8339,30.99,-9,31.96,-5,0.02,-37,41.95,-48,3994.70,-2,13.48,-66
8444,31.09,21,0.02,18,0.35, 9,41.95,-32,3992.44,11,3903.29,15
8549,30.82,39,0.34,35,0.48,59,40.00,32,3977.26,-36,3891.83,-45
8654,32.00,-65247,1.15,57,0.27,-109,40.00,16,3994.94,-65513,45.49,410
8759,31.84,99,0.59,-46,0.93,-25,39.02,32,3924.76,-30,3901.46,14
8864,31.80,-7,0.54,13,1.43,-40,40.00,16,3857.44,-28,15.67,-57
8969,31.67,-12,0.71,-7,0.93,12,40.00,32,3819.09,-12,38.72,-41
9074,0.08,18,0.66, 2,0.78,-20,39.02,-16,3817.01, 8,7.38,63
9179,0.23,-22,0.46, 6,0.39,-5,40.98, 0,3847.80,-10,94.02,-44
9284,31.85,-35,0.20, 0,31.87,11,41.95,-32,3935.12,27,86.59,-23
9389,31.50,-39,0.34,36,0.02,27,39.02,16,25.00, 4,146.95,34
9494,30.97,-75,0.60,-31,31.88, 9,39.02, 0,57.44,10,154.27,-5
9599,30.78,-9,0.64,20,31.51, 9,40.98,-32,165.37,21,175.73,-20
9703,30.96,31,0.83, 8,31.37,-22,40.00,16,182.07,-1,49.45,24
9808,31.03,17,0.28,-7,31.33,-101,40.00, 0,122.62,22,135.91,98
9913,31.33,20,0.39,10,31.06,44,40.98,-48,94.09,20,342.07,92
10018,30.94,53,31.84,137,31.17,-5,40.98,-32,15.12,-13,3960.49,163
10123,31.50,-32,31.84,-32,30.94,-42,39.02, 0,11.59,23,132.99,25
10227,31.39,-37,0.09,-28,30.18, 1,40.00, 0,145.55,-41,196.28,28
10332,31.66,10,31.54,25,31.93,-12,38.05,32,29.82,-46,94.76,-211
10437,0.13,-19,31.63,-3,31.47,-39,40.00,-32,3935.49,-25,21.28,-111
10542,0.21,42,31.55,-95,30.33,-59,38.05, 0,3877.93,60,3824.82,47
10647,0.13,14,31.84,-23,30.80,118,40.98,-32,41.59,107,84.21,-49
10752,0.22,-1,31.70, 6,31.11,-2,39.02, 0,52.80,-8,3974.27,-28
10857,0.17,-2,31.51,27,30.87,-9,38.05,16,84.70,34,7.80,-39
10962,0.26,72,31.25,10,31.48,-52,40.00,-32,3948.29,-80,3856.83,28
11067,31.68,83,31.37,29,30.20,-3,38.05,32,31.40,58,3924.02,246
11172,31.71, 3,31.13,-5,31.30,30,40.98,-48,100.73,-17,3849.09,14
11277,31.60,15,31.50,-1,31.32,-13,39.02,-16,3978.17,-7,3795.98,-13
11382,31.45,-25,0.19,15,31.60,64,38.05,16,3989.70, 7,3885.12,11
11487,31.20,-25,0.45, 1,31.94,-1,38.05, 0,3.66,-8,3924.27,26
11592,31.15,-163,0.12,-24,0.14,-9,40.98,-16,3926.40,-2,3977.62,164
11696,30.99,83,0.24,-11,31.96,-101,39.02, 0,3948.96, 8,3897.74,63
11801,31.85,109,0.09,41,0.72, 5,39.02, 0,2.32,13,3851.83,51
11906,31.88,-37,0.86,-1,0.56,64,38.05,32,41.04, 4,3922.13,59
12011,0.11, 9,1.13, 5,0.34,16,40.00,-32,3986.34,-21,3951.65,70
12116,31.55,-78,0.66,21,0.53, 5,39.02,16,3927.62,-15,129.63,-25
12221,0.30,-14,1.17,50,31.82,-35,39.02,-32,3887.32,10,3971.65,58
12325,31.11,25,31.99,13,0.22,-13,40.00,-16,33.84,19,123.29,-34
12430,31.42,25,0.35, 2,0.03,65464,40.00, 0,81.40, 9,3963.72,54
12535,31.41,-28,0.50,17,0.33,29,38.05,32,96.83,26,3991.95, 4
12640,30.93,-16,1.00,-8,0.51,-34,39.02, 0,79.39,-26,3884.33,-234
12745,31.54,-64,0.87, 4,0.48,-61,41.95,-48,5.79, 0,54.21, 3
12850,31.53, 8,0.81,-5,0.01,10,38.05, 0,7.99, 6,24.39,22
12955,31.48,20,0.82,-7,0.10,-7,37.07,16,1.10,-1,33.96,-4
13060,31.40,-22,0.75,-10,0.03,-4,39.02, 0,0.43, 4,22.74,-12
13165,31.41,-23,0.72,-11,0.01, 9,40.00,-48,8.54, 1,21.52, 5
13270,31.31,-25,0.70,-13,31.95,-13,36.10,32,15.98, 0,20.43,-4
13374,31.28,-1,0.65,-10,31.92,-17,39.02,16,23.54, 1,28.05, 0
13479,31.25,-7,0.62,-6,31.83, 0,39.02,32,32.56,-2,51.40,10
13584,31.22,-6,0.54,-16,31.70,-23,40.00,-48,50.12,-2,36.65, 2
13689,31.14,-28,0.45,-1,31.60, 4,38.05, 0,67.13, 1,30.00,-4
13793,31.06, 1,0.25,17,31.40,-16,38.05, 0,84.82, 9,115.12,31
13898,30.77,-22,0.15,-49,31.31,-4,37.07,16,92.44,-3,110.79,-43
14003,31.13,39,31.95,-6,31.45,-39,39.02,-32,64.45,-8,93.96,-17
14108,31.69,44,31.90, 0,31.44,-9,37.07,32,2.07,-19,48.35,34
14212,31.97,36,0.04,17,31.59,-20,38.05,-32,3944.45,-17,106.71,-18
14317,2.49,690,0.66,-300,31.88,190,38.05,32,116.16,26,742.38,-708
14422,0.43,-86,31.54,-16,31.32,71,38.05, 0,3.84,11,5.91,52
14527,0.84,11,31.65,-16,31.48, 6,37.07,32,8.72, 1,16.83,-60
14632,0.66,18,31.73,-19,31.62, 3,38.05,-16,8.78,-4,22.01,-1
14736,0.96, 3,31.67, 7,31.54,-29,38.05, 0,3990.67, 2,3971.83, 5
14841,0.94,-2,31.67, 2,31.62,29,39.02,-16,3995.91, 2,3995.37,-16
14946,0.95,15,31.67,-5,31.46, 8,39.02,-16,3984.45,-5,3970.43, 9
15051,0.91, 8,31.67,-32,31.53,-11,40.00,-48,3987.80,-9,11.46, 0
15156,0.81,30,31.77,-18,31.63,-29,38.05, 0,3981.52,-11,3989.39,-21
15261,1.03,-15,31.80,42,31.46,-17,37.07,16,36.71,17,3982.99, 6
15366,1.11,-14,31.69,30,31.51,59,37.07,32,63.35,-22,32.74,-33
15471,0.92,-10,31.69,-12,31.78,18,39.02, 0,35.91,-19,3987.13,-77
15576,0.91,-5,31.57,-21,31.69, 7,38.05, 0,8.35,-38,3925.37,-68
15681,0.53,289,31.59,-170,31.32,137,38.05, 0,3944.33,-9,3860.91,-6
15786,0.34,-8,31.54,-17,31.12,-27,37.07, 0,3915.91,-8,3804.15,10
15891,0.14,-17,31.59,-26,30.96,-15,39.02, 0,3935.85,-11,3893.41,16
15996,31.93,-15,31.70,22,30.73,-20,36.10,48,3925.55,-7,14.33,46
16101,0.06, 7,31.79,57,30.74,129,38.05,-32,3939.09,-11,3886.04,-17
16206,31.80,-28,0.17,24,31.09,52,38.05, 0,3894.70,-35,3912.68,-79
16311,31.25,-1,0.68, 2,31.20,19,37.07, 0,3827.80, 4,3629.21,-67
16416,31.22,28,0.47, 0,31.34, 1,38.05,-16,3901.04,37,3525.73,110
16521,31.68, 5,0.55,-6,31.94,-1,38.05, 0,3976.77,12,18.23,57
16626,31.66,24,0.55,-31,31.92,-15,39.02,-48,3984.57, 4,6.10,38
16731,30.69,-35,0.93, 9,31.55,-23,39.02,-16,62.68,40,275.30,38
16835,30.88,66,0.36,-30,31.48,194,39.02, 0,128.90,25,3972.93,-182
16940,30.75,-147,0.11,137,0.20,236,36.10,32,96.95,-108,3724.70,-58
17044,31.22,91,0.53,-52,31.85,15,38.05, 0,5.49,31,3775.24,14
17149,31.39,-14,0.08, 9,0.13, 7,37.07,-48,47.80,-18,51.95,14
17253,31.25,-19,0.29, 7,31.90, 6,35.12,64,3969.33,26,74.33, 9
17358,31.05,-25,0.53, 0,31.85,-13,37.07, 0,3984.15,-12,15.12,-2
17463,31.09,-10,0.55,-1,31.97,29,38.05,-16,3965.24,-17,3962.56,-46
17568,31.20,-11,0.65,15,0.08,-24,38.05,-32,3935.30,-4,3980.12,-3
17673,31.11,-9,0.53, 0,0.16, 1,36.10,32,3947.80, 3,3936.89,-12
17778,31.32,22,0.54,-12,0.35,-14,35.12,64,3952.01,-3,3903.29,-3
17883,31.44,-8,0.58,-3,0.41,-20,37.07, 0,3936.46, 6,3911.16,16
17988,31.51,-19,0.55,33,0.42,19,37.07,32,3929.51, 4,25.18,33
18093,31.10,15,0.68,-22,0.32,-22,38.05,-48,3977.26,28,60.67,-62
18198,31.45,28,0.50,29,31.75,-18,38.05, 0,105.00,60,3887.20,-52
18303,31.76,-96,0.72,95,0.95,109,38.05,-32,351.71,-27,144.09,-116
18408,0.19,303,0.87,-80,0.94,-78,37.07, 0,240.79,-173,17.68,30
18513,31.22,-30,0.21,59,0.39,43,37.07, 0,7.13,37,104.82,-166
18617,31.80,-63,0.26,-78,0.13,94,36.10,32,59.76,-27,3854.39,99
18723,31.46, 1,0.49, 2,0.64,-17,38.05,16,3975.91, 3,40.91,-2
18828,31.42, 3,0.52,-8,0.53, 2,34.15,64,15.24, 3,3987.50,-11
18933,31.40, 1,0.56, 2,0.50, 2,36.10,32,7.13, 4,10.98,-6
19038,31.23,-10,0.47, 4,0.41,-18,36.10,32,45.49,16,3980.61,-62
19143,31.27,25,0.34,-17,0.74,-27,40.00,-64,52.38,-2,3769.33,-33
19248,31.33,40,0.60,-8,0.50,-3,40.00,-32,78.72,36,3967.99,-68
19353,31.61,-19,0.30,-4,0.14, 6,35.12,48,114.15,-9,59.63,-68
19458,31.25, 0,0.57,-24,0.07,14,37.07,16,67.26,-2,8.29,-91
19563,31.15,-24,0.59,-2,0.16,-23,39.02,-32,13.35,-3,31.65,11
19668,31.16,-45,0.46,-12,31.96,22,37.07,32,7.13,-2,51.46,-40
19773,30.98,-29,0.52,25,31.90,25,38.05, 0,3993.48, 8,57.01,-51
19878,30.95,57,1.08,42,0.24,42,38.05, 0,2.62,-1,17.20,-4
19983,31.74, 5,1.15,-49,0.04,16,39.02,-48,3922.68,-22,123.66,-12
20088,31.56,-7,0.63, 1,0.04,-38,39.02,-48,3792.13,-18,40.79,-8
20193,31.42,-2,0.79,-5,31.67,-8,39.02,-64,3755.37,-1,16.71,-29
20298,31.05,-5,0.82,-1,31.14,26,37.07, 0,3841.59,30,41.10, 1
20403,31.21,-13,0.31,-37,31.09,-30,38.05,-32,3940.49,25,64.09,34
20508,30.46,-110,0.27,104,31.40,-20,38.05,-32,34.21,27,32.07,-206
20613,31.00, 6,0.46,-11,0.43,21,37.07,48,10.49,-12,59.94,74
20718,31.50, 4,0.62,-2,31.77,-32,37.07, 0,7.99, 7,53.35,-1
20823,31.13,18,0.60,-2,31.88, 6,39.02,-32,3995.37, 1,3972.93,40
20928,31.23,-4,0.62, 7,31.89, 9,36.10,16,6.34, 1,3992.74,-4
21033,31.21,-4,0.63,10,31.85,-5,36.10,16,3994.51, 0,0.30, 7
21138,31.16,-3,0.57,-20,31.83, 7,36.10,32,0.61, 3,39.33, 3
21243,30.99, 7,0.46,-5,31.91,44,36.10,32,3993.17, 2,108.29,-1
21347,31.12,-6,0.32, 8,31.72,-4,37.07,32,3994.21, 7,130.79,-1
21452,31.38,-6,0.04, 3,31.71,10,39.02,-64,3979.15,-14,69.76,27
21557,31.45, 7,31.95, 3,31.40, 4,37.07,-32,3939.88,-5,141.52,-7
21662,31.60,20,31.91,-10,31.01,-9,36.10,48,3909.63,-6,80.85,-37
21767,31.61,39,31.87,-37,30.77,-330,36.10,32,3928.78,50,3866.22,39
21872,31.90,-15,31.98,25,30.98,62,38.05,-32,22.68,-7,3957.01,-30
21977,31.54,-6,31.88,27,30.81,15,40.00,-32,5.55,-11,3915.24,28
22082,31.67,-16,31.89,-4,30.93,17,36.10,32,13.54, 1,45.91,13
22187,31.41,77,31.91,-4,30.60,-43,36.10,32,8.96,47,159.63,183
22291,0.46,17,0.12,-13,31.45,-1,36.10, 0,3992.38,-7,175.24,-277
22396,0.82,-18,31.22, 1,31.38,13,38.05, 0,37.99,-12,168.29,-118
22501,0.64,11,31.79, 2,31.21,-1,35.12,48,0.06, 4,3986.46,27
22606,0.80,-15,31.79,-6,31.26,-1,37.07,-32,3.23,-6,3994.21,-16
22714,0.77, 3,31.76, 7,31.24,-18,35.12,32,0.49,-1,12.68,-1
22819,0.70, 4,31.79,-14,31.30,-51,36.10, 0,3982.87,-3,3973.48,-4
22924,0.73,-20,31.85, 3,31.24, 2,36.10,32,3.66,13,12.38, 3
23029,0.82,-8,31.87, 4,31.45,24,37.07,-16,23.96,-6,22.80,-44
23133,0.79,33,31.76,-4,31.39,-167,37.07,-16,3.54,-6,3921.95,-19
23238,0.65, 0,31.94,-20,30.75,-25,37.07,-16,6.10,30,3858.17, 6
23343,0.57,-26,31.78,-17,30.96,52,39.02,-48,37.20,-7,9.76,-1
23448,0.47,-10,31.74,-15,31.23, 3,37.07,-32,13.78,-19,4.94,-10
23553,0.48,53,31.69,21,31.10,-37,35.12,32,10.12,12,3964.33, 9
23658,0.49,-1,31.67,-7,30.94,25,36.10,16,3995.49,-4,3978.96,12
23762,0.44,-8,31.70,-18,31.00,60,36.10,16,0.12, 4,3927.13,-13
23867,0.31,-56,31.64,11,30.97,47,38.05,-16,3977.87,-28,3879.09,-14
23972,31.99, 7,31.86,-44,30.79,-10,36.10,16,3932.80, 7,3857.13,28
24077,31.82,-77,31.94,-6,30.97,110,38.05,-32,3907.01,-46,3802.74,-70
24182,31.41, 6,31.93,18,30.75,-28,36.10, 0,3940.43,27,3867.99,-24
24287,31.81,12,0.24, 7,30.94, 7,38.05,-32,47.99,14,3884.88,-48
24391,31.58,-18,0.28, 1,31.10, 3,38.05,-32,113.29,21,3943.90,-54
24496,31.10,23,0.33,-24,31.59,-49,37.07,-16,105.91,11,3732.62,-65
24601,31.45,118,0.50, 7,0.04,21,35.12,32,81.89,-6,3818.23,131
24706,31.50,-47,0.69,17,0.17, 3,37.07,-32,39.39,-28,3952.13,-15
24810,30.60,65,0.88,-57,0.25,-5,37.07,32,3989.51,-9,3950.43,-96
24915,31.36,13,0.64, 4,31.96,-30,37.07, 0,2.26, 6,19.94, 3
25020,31.35,23,0.79,-18,31.99,18,38.05,-48,0.18, 1,3984.70,25
25125,31.24,-33,0.82, 1,0.07,40,38.05,-16,3994.51,-8,29.57,-8
25229,30.96,-35,0.61, 7,0.09,33,36.10,-16,3980.85,-16,16.52,-55
25334,31.18,26,0.37,-19,0.19,-16,36.10,-16,3944.02,-13,3964.63,31
25439,31.31,17,0.30, 2,0.20, 1,36.10, 0,3916.83,-7,18.29,-11
25544,31.29,-45,0.25,-9,0.05, 2,36.10,32,3896.34,-3,3994.63,-32
25648,31.33,12,0.22,26,31.92,-8,36.10,16,3916.83, 9,3930.55, 6
25753,31.36,19,0.23,-1,31.92,-4,36.10,-16,3988.72,41,3963.48,48
25858,31.55,11,0.30,-28,0.28,13,36.10,-16,73.54,-29,62.38,29
25963,31.23, 1,0.28,-25,0.06,18,36.10,-16,8.66,-14,3969.09,-9
26068,31.35,43,0.17,-55,0.20, 9,38.05,-32,4.57, 4,3957.93,17
26173,31.06,-22,0.38,14,0.17,32,36.10, 0,3989.21,-19,3954.94,-31
26278,31.04,20,0.30,-14,0.20, 1,36.10,32,3994.76,-5,5.06,-39
26383,31.09,-9,0.37,24,0.30,-13,36.10, 0,3992.38,-6,30.24,36
26488,30.86,-2,0.65,17,31.72,-4,36.10,-32,65.12,24,127.68,131
26592,31.13,-26,0.14,-5,31.80,25,38.05,-32,183.72, 1,160.67, 3
26697,31.01,52,31.84,-15,0.11,-13,38.05,-32,113.72,-32,21.65,-69
26802,30.99,-9,31.63,-1,31.71,-80,38.05,-32,56.77,-8,16.95,-71
26906,31.28, 7,31.58,17,31.82,14,38.05,-32,47.20,-7,17.80,-42
27011,31.66,16,31.57,21,31.84,-16,34.15,16,33.41,-2,8.41,30
27116,31.36, 7,31.30,-17,31.92,-20,35.12, 0,4.15,-14,42.56,-17
27221,31.41, 7,30.97,-11,31.93,-1,35.12,64,20.98, 8,53.54,18
27326,31.34,-18,31.13,11,31.59,-4,36.10,16,65.79,22,18.90,18
27431,31.36,-5,31.44,11,31.79, 7,36.10, 0,57.20,-3,3973.90,-11
27536,31.32,-8,31.38,-2,31.75,-25,36.10,32,22.38,-6,7.01,-36
27640,31.17,-8,31.14, 0,31.89, 1,36.10, 0,23.66,13,3968.29,-36
27745,31.10, 6,31.12,-3,0.18,-12,36.10,32,75.00,13,3838.66, 3
27850,31.36,-50,31.08, 8,0.50, 0,37.07,16,124.76,13,3826.10, 1
27955,31.70,22,31.28,27,0.37,-6,37.07,16,70.12,-12,3797.07,-20
28060,0.17,-26,31.60,26,0.35,35,35.12,32,24.94,10,3850.18, 1
28165,0.31, 2,31.53, 6,0.33,-14,35.12,32,8.17,-3,3839.33,36
28270,0.31,19,31.67,-45,0.48, 1,34.15,16,3991.10,-1,3908.41,-9
28375,0.60,-2,31.22, 5,0.48,-21,36.10,-32,3975.98,-5,3924.27, 3
28480,1.09,48,31.37, 1,0.57,-25,36.10, 0,3980.85,-17,3955.43,-44
28585,0.83,-35,31.50,-6,0.43,23,34.15,32,3954.21,-11,159.63,15
28690,0.25,-6,31.23,-19,0.47,-26,35.12,16,3929.33,10,122.80,35
28795,0.25,26,31.15,-22,0.54,-10,35.12,48,3959.33,-6,94.70,-74
28900,0.81,-6,31.03, 6,0.28,-95,35.12, 0,3917.62,-7,108.05,60
29005,0.51,-29,31.76,57,0.38,20,38.05,-16,3930.06,-14,70.73,-14
29110,31.76,-98,0.03, 6,0.29,68,38.05,-32,3933.11,40,18.90,-83
29215,31.26,-4,0.08,31,0.79,72,36.10,-32,3958.90,-17,3808.41,-61
29319,31.56,46,0.30,31,1.02,-27,36.10,-32,3970.37, 1,3830.06, 0
29424,31.83,32,0.63,23,0.25,-98,34.15, 0,26.28,21,155.12,164
29529,30.60,-108,1.22,-9,31.85,33,35.12,16,4.15, 4,147.13,-24
29634,30.83,29,1.10, 6,0.26,15,35.12, 0,26.46,-8,3991.22,-91
29738,30.85,134,1.04,-51,0.33,13,35.12, 0,45.73, 0,3983.84,14
29843,31.11,39,0.83,11,0.19,-8,34.15,16,14.76,-6,3970.49,-13
29947,31.23,10,0.77, 1,0.27,11,36.10,-16,5.43,-5,3992.68,-31
30052,31.25,12,0.57,-27,0.25,13,36.10,32,3971.04,-7,3982.01,11
30157,31.31,-3,0.42, 2,0.20,-5,34.15,32,3960.30, 6,7.50,10
30262,31.39, 6,0.52,45,0.14, 9,34.15,32,3948.54, 4,3995.85,-3
30366,31.41,-50,0.77,50,0.28,82,36.10, 0,3981.65,-12,3962.26,-21
30471,31.56,-7,0.13,-16,0.27,-7,35.12,32,3976.52,25,3952.62, 1
30576,31.28,-3,0.48,-10,0.45,-13,37.07,-32,12.99, 4,17.44,-4
30681,31.26, 4,0.46,-4,0.41,-13,34.15,48,3993.84,-7,3987.32,-19
30785,31.31, 0,0.37,-5,0.43,-10,36.10,-48,15.43, 3,28.90,-3
30889,31.24,-20,0.37,-10,0.42,-11,34.15,48,3990.79,-1,3995.85,-65532
30994,31.37, 6,0.32,-1,0.35,-5,34.15,32,15.67, 7,3987.56,-5
31099,31.43, 0,0.44, 5,0.39,22,34.15,64,14.33,-5,3987.20,20
31204,31.21,38,0.64,-18,0.38,-19,36.10, 0,9.45, 2,3974.27,-33
31309,31.51, 7,0.69,-2,0.33,19,37.07,-16,37.68, 1,3994.02,-5
31413,31.77,-1,0.60,-3,0.28,26,35.12,16,32.50,16,3991.22,12
31518,31.85, 4,1.03,11,0.46,-20,37.07,-48,38.41,-13,3946.77,-21
31623,0.25,-29,1.02,-8,0.40,-22,35.12,-16,3.72,-25,3878.17,-4
31727,0.31,-64,0.79, 0,0.40,-35,37.07,-32,3971.28,-3,3868.11, 9
31832,0.26,-6,1.06,-10,31.98,-23,34.15,48,3968.17,-20,3909.45,24
31937,31.86,18,0.65,13,31.78,-18,34.15,64,3960.00,21,3955.24,38
32042,31.81,14,0.87,52,31.94,-7,36.10, 0,66.83, 7,3974.70,-67
32147,0.08, 7,1.27,-2,31.82, 5,37.07,-16,73.78,-10,3893.35,26
32252,31.37,-14,1.00,-5,0.36,23,35.12,32,47.80,-41,3951.10, 1
32357,30.96, 1,0.79,-21,0.24,-25,37.07,-32,3970.67,-20,3967.74,-21
32462,30.55,33,0.62,-31,0.23,52,37.07,-32,3983.96,-1,46.40,-37
32567,31.22,13,31.87,11,0.13,55,36.10,-32,0.37, 8,3943.29,43
32672,31.45,-11,31.99,16,31.77,-29,36.10,-32,3980.79,25,3967.87,29
32776,30.77,-14,31.94,-1,31.84,38,36.10, 0,64.02,10,0.43,38
32881,31.07,17,0.18,63,31.83, 1,36.10, 0,11.34,-6,3940.91,43
32985,31.24,-34,0.61,-8,31.98,-65496,38.05, 0,3989.09,-2,84.94,-1
33090,31.05,-30,0.54, 6,0.23,22,35.12,16,3978.96,-12,3965.79,-47
33195,31.04,-4,0.53, 8,0.45,24,37.07,-32,3971.65,-12,3973.17, 1
33300,31.08, 2,0.34,-39,0.62,11,37.07,-32,3918.11,-12,3911.16,-12
33405,31.12,-5,0.05,-3,0.41,-7,35.12, 0,3863.66,-6,3878.41,15
33510,31.12, 0,31.91,-7,0.03,16,35.12,-32,3896.40,21,3944.94,-5
33615,31.45, 0,31.75,-22,0.14,25,36.10,-16,3972.56,13,3948.35,34
33720,31.45,-11,31.51, 7,0.17,24,34.15, 0,42.26,12,65.61, 8
33824,31.44, 8,31.87,58,0.08,-5,36.10, 0,124.51, 4,77.68,-55
33929,31.63, 7,0.47,37,31.97,-4,38.05,-32,184.09,-4,98.35, 3
34033,31.39,-72,0.87,-69,0.44,50,34.15, 0,212.13,11,3937.68,30
34138,31.10,-24,1.40,-30,1.32,66,34.15,32,43.72,-67,74.39,59
34242,31.20,-5,31.52,-16,0.98,-62,36.10, 0,3859.02,-20,43.17,58
34347,31.25,-6,31.68,52,31.91,-21,36.10,-32,3879.33,-1,3993.11,46
34452,30.36,176,0.46,48,31.91,32,36.10,-32,3993.72,35,3971.89,-17
34557,31.13,17,0.22, 2,0.45,-20,35.12, 0,3969.76,13,33.23,140
34662,31.16,-6,0.27, 9,0.03, 9,35.12, 0,50.12,-1,41.16,-17
34767,31.02,-3,0.40, 6,0.15, 5,35.12, 0,5.85,-13,3976.89, 4
34872,31.15, 7,0.34, 1,0.17, 4,35.12,32,3981.04, 1,3992.62,-7
34977,31.08,-12,0.28,13,0.19,14,35.12,-32,3986.59, 1,3980.24, 5
35081,31.04, 1,0.27, 0,0.23,-12,35.12, 0,3980.85,-1,3956.28,-19
35186,31.11,-11,0.10, 7,0.27,33,35.12,-32,3979.45, 5,3952.20,13
35291,31.17,17,0.04,-14,0.23,21,36.10, 0,5.85, 0,3983.72, 1
35396,31.41,11,0.21, 8,0.22,-2,34.15, 0,3991.40,17,3947.20,28
35501,31.71,10,0.54,18,0.10,-13,37.07,-16,70.49,34,3981.16,52
35606,29.76,88,2.20,-173,1.29,-140,35.12,16,3955.00,-41,3951.34, 7
35710,31.37,12,0.85, 2,0.59,-56,33.17,16,4.94,-23,19.57,47
35815,31.67,-2,0.52, 7,0.33, 0,33.17,48,3983.96, 7,11.71,31
35920,31.27,-11,0.63, 9,0.38,-8,33.17,32,3995.12, 1,55.98, 0
36025,31.29,34,0.32,-23,0.40, 4,35.12,32,61.83,-7,5.12,24
36130,31.14, 3,0.32,-33,0.22,51,35.12,32,3987.93,-16,3980.00,-34
36235,31.32,14,0.56,16,0.35, 8,36.10,-16,3990.67,-3,3965.61,13
36340,31.33,10,0.56,-12,0.38,-3,36.10,-16,3986.46, 0,3980.30, 0
36445,31.33,-5,0.54,-5,0.38,10,34.15, 0,3993.66, 5,1.46, 3
36550,31.33, 2,0.51,10,0.36,-2,36.10,-32,0.79, 1,0.18, 4
36655,31.34,-8,0.53,-6,0.36, 8,36.10, 0,3.41, 1,3.84, 0
36760,31.33,-5,0.53,-9,0.35,21,35.12,16,0.91,-2,3.90, 2
36865,31.31,19,0.52,-5,0.35, 6,35.12,16,3995.61,-3,3991.77,-2
36970,31.53,36,0.36,-16,0.21,-26,35.12, 0,21.16,16,3990.91,-8
37075,31.35,-7,0.67,-16,0.34,19,37.07,-32,19.63,-11,3990.00,-1
37180,31.37,-21,0.64, 2,0.28, 7,37.07,-32,20.12,-6,14.39,-12
37284,31.41,-22,0.66, 8,0.30,18,35.12,32,9.02, 7,2.01,10
37389,31.40,-1,0.77, 8,0.22, 5,36.10,-16,23.78, 2,30.12, 4
37494,31.33,11,0.92,29,0.14,-6,36.10, 0,15.06,-13,22.32,-17
37599,31.30, 0,1.06,-39,31.82,-38,36.10,-32,3973.23,13,92.07,30
37703,31.66,-10,0.85,-54,31.80,-2,34.15,32,53.05,22,41.04,-2
37808,31.36,-8,0.76, 4,31.88,20,36.10,32,54.15,-2,3952.68,-19
37913,31.31,37,0.73,-29,0.05,19,36.10, 0,43.54,-2,3981.71,30
38018,31.23,22,0.61, 3,0.04,14,34.15,32,31.16,-6,3985.24,-6
38123,31.28,28,0.57,-7,31.96, 7,35.12,16,10.55, 2,3982.13,-5
38228,31.20,20,0.46,-8,31.91,-24,37.07,-48,3994.94,-1,8.23,-4
38333,31.05,-18,0.42,-19,31.85, 2,35.12,-32,3.54,-1,25.24,-24
38438,31.00, 1,0.40, 6,0.14, 0,35.12,32,3988.72,-11,3980.49,-25
38543,31.37,25,31.66,-4,0.15,16,35.12,-32,3894.76,-42,3893.78,-35
38648,31.82,-6,31.42,-14,31.33,-54,35.12, 0,3821.89, 8,112.74,52
38753,31.47,79,31.07,20,30.67,-47,35.12, 0,3848.48,11,116.34,-137
38858,31.67,24,31.62, 1,31.22, 8,34.15,48,3965.30,-14,225.12,-135
38963,31.94, 6,31.56,26,30.79,-8,34.15,32,3968.66, 5,33.72, 0
39068,31.95, 5,31.64, 7,30.87,12,34.15, 0,3982.80,11,22.32,-7
39173,31.98,-12,31.60,-20,30.89,35,36.10,-32,18.29,13,42.56, 4
39278,0.10,14,31.57,-18,30.95, 4,36.10, 0,9.76, 3,29.82,-2
39383,0.16, 5,31.61,-12,30.98,-3,37.07,-32,0.00, 0,3.29,-2
39488,0.12,-2,31.62, 0,30.95,-3,35.12, 0,3994.76,-3,3983.05,-2
39593,32.00,-65514,31.65,-27,30.85,-14,35.12, 0,15.85, 7,3941.95,-32
39698,31.94, 5,31.51, 4,30.94,-3,36.10, 0,51.46, 2,3922.07,12
39803,31.87, 3,31.47,-6,31.04,-1,36.10,-32,55.98,-7,3952.07,27
39908,31.85,10,31.40,-1,31.18,24,36.10,-32,41.16,-4,3985.00,14
40013,0.09, 3,31.10,-5,31.21,27,32.20, 0,19.70,-16,3985.37,-5
40121,31.89,12,31.07,15,31.08,-15,35.12,-32,3978.23,-5,3890.67,22
40227,31.51,13,31.73, 3,31.21,-2,33.17,16,3957.01, 0,3854.21,15
40332,31.29,-27,31.97,-40,31.55,-4,35.12,-32,3972.26, 8,3864.82, 7
40437,31.11, 1,0.02,29,31.86,28,35.12, 0,3984.82,-5,3915.98,15
40542,31.13, 4,0.24,-2,31.94,-20,36.10,16,3964.51,-8,3929.70, 5
40647,31.36,-7,0.32, 3,31.81,13,36.10,-32,3972.80, 5,3953.66, 5
40752,31.27,-8,0.52,14,31.97,15,34.15,32,3982.44,-2,3918.29,-20
40857,0.08,-37,1.01,25,31.70,66,34.15,32,47.07,-16,3987.50,50
40962,30.58,-99,1.02, 2,0.58,-85,33.17,16,3992.93,-14,101.52,-220
41067,0.55,278,1.33,28,31.67,131,35.12,16,3993.60, 7,3760.49,47
41172,31.91,59,1.26,21,0.19, 5,33.17, 0,3988.96,-16,3934.63,-17
41277,0.17,21,0.99,-21,0.18,-13,35.12, 0,3960.06,-3,3994.76,-1
41382,0.52,-7,0.48,-37,0.33, 8,34.15,-16,3973.84,12,37.93,16
41487,0.43,-28,0.89,41,0.29,30,34.15, 0,20.61, 4,28.11,29
41592,30.68,102,1.21,139,0.34,126,34.15,-32,3939.09,-48,164.21,-156
41697,31.52,-34,0.82, 0,0.57,-3,34.15, 0,3968.41,-42,14.39,17
41801,31.33,-99,0.68,-64,0.41, 9,33.17,16,3907.13,-22,90.79,94
41906,30.65,49,0.32,-21,0.07,-12,37.07,-48,3986.95,34,66.59,-69
42011,31.28, 4,0.15,10,31.75,-1,35.12,-32,98.90,23,4.94,-14
42116,31.33,28,0.56,17,31.71, 6,33.17,32,98.23,-1,3994.70,-1
42221,31.56, 2,0.82,-18,31.98,-5,33.17,32,112.07,-1,108.84, 9
42326,31.52,-33,0.61,25,0.00,65476,34.15,16,76.10,-8,177.38,141
42431,30.86,-2,0.71, 3,31.98, 4,32.20,64,36.59,-6,58.66,21
42536,31.14, 5,0.47,-8,31.88,-52,36.10, 0,3.78, 0,3975.98,-17
42641,31.07,-31,0.64,33,31.34,-68,36.10,-32,13.60,32,3990.55,59
42746,30.82, 7,0.38,-38,31.08,63,34.15, 0,166.77,43,32.56,-21
42851,30.99,-13,31.67, 5,31.60,34,33.17, 0,232.56, 8,3989.02,-33
42956,31.39,32,31.66,-9,31.84,16,33.17,32,213.66,-17,3995.98,-48
43061,31.35,14,31.45,-4,31.89, 4,36.10,-16,149.76,-5,3972.13,34
43166,31.34, 1,31.36,-10,31.94,-5,34.15,-32,120.37,-3,140.91,-26
43270,31.32, 2,31.16,17,0.03, 7,34.15,-32,77.01, 5,89.09,-61
43375,31.40,10,31.42,11,0.02,18,33.17,16,54.27,-5,27.01,76
43480,31.23,-12,31.23, 3,31.94,15,33.17,48,18.90,10,3988.96,-19
43585,31.39,80,31.90, 3,0.07,-33,33.17,32,3892.50,-37,3835.73,-25
43690,31.63,-16,31.91,-53,31.80,16,34.15,16,3676.16,-36,3735.12,-24
43795,31.02,-115,31.71,95,31.49,221,36.10,-32,3762.13,83,3647.87,34
43899,30.28,217,0.82,-50,0.97,-29,34.15,32,3894.94,-41,3928.96,206
44004,30.85,43,31.97,-11,0.17,-4,34.15, 0,3860.12, 5,43.48,51
44109,31.60,-54,0.07,-106,0.02,65317,34.15, 0,3975.43,80,39.33,63
44219,31.37,46,0.16,20,31.94,-31,32.20,64,7.99,22,8.35, 7
44324,31.28,11,0.46, 6,0.15,-21,34.15,-16,1.89,-9,3991.59,-13
44429,31.10, 3,0.39, 2,0.08, 6,34.15,16,3991.95, 2,15.12,-7
44534,31.17,-9,0.38, 5,0.09,-22,32.20,32,3990.49,-2,0.49, 8
44639,31.11,17,0.39, 5,0.08,26,34.15, 0,3988.17, 3,3985.06,-4
44744,31.13,-22,0.36, 9,0.12,-6,34.15, 0,3982.74,-3,3980.67, 2
44849,31.06,-8,0.31, 4,0.19, 4,32.20, 0,3968.66,-6,3953.17,-19
44954,31.11,-5,0.06,-34,0.17,-1,34.15, 0,3957.26, 2,3928.29,-8
45059,31.12,-4,0.10, 3,0.16,-8,35.12,-16,18.17,-2,3980.91,-23
45164,31.41,-11,0.73,11,0.35,26,35.12,-32,87.50, 6,3993.60,-31
45269,0.30,57,0.73,110,31.85,40,33.17, 0,139.09,27,3966.46,46
45374,31.29,-134,0.20,130,0.51,151,33.17,32,3978.48,16,3950.06,46
45479,31.54,47,0.48,-31,0.49,-11,36.10,-48,3.96,22,12.50,31
45584,31.27,-7,0.59,11,0.38,-22,34.15,16,8.96,-13,52.20,-30
45689,31.09,-27,0.41,27,0.39,17,34.15, 0,3973.11,11,8.54,-10
45794,31.28,-21,0.28,10,0.40,-38,36.10,-32,32.38,-14,11.46,32
45898,31.22,-12,0.29,17,0.31, 2,36.10,-32,2.50, 3,3972.80,-6
46003,31.24,-7,0.38, 6,0.35,-11,32.20,64,4.15, 4,3990.18, 0
46108,31.37, 2,0.33,-21,0.34,38,32.20,32,10.00, 7,12.62, 7
46213,31.12,-11,0.54, 1,0.29,26,32.20,32,22.13, 4,7.13,-34
46318,31.13,19,0.58, 8,0.38, 0,36.10,-64,18.11, 6,3991.46, 6
46423,31.18,37,0.65,-10,0.26, 3,34.15, 0,26.52,-9,17.20,-27
46528,31.23,25,0.62, 7,0.20,-18,34.15,32,5.43,-2,2.93,-12
46633,31.21,-6,0.62,31,0.21,-15,34.15, 0,4.09,-7,11.52, 3
46737,31.32,11,0.69, 2,0.17,38,32.20,32,3993.11, 4,2.93,11
46842,31.34,-34,0.87,28,0.05,-18,34.15,32,40.85,18,171.22,32
46946,31.04,29,0.55,-9,31.97,-54,34.15, 0,8.96, 5,86.40, 1
47051,31.33, 0,0.18,-10,31.78,-2,32.20, 0,19.02, 2,15.73,-39
47156,31.71,-11,31.46,-35,31.56,42,34.15,-32,41.22,19,122.32,46
47261,31.86,-47,30.99,14,31.27, 4,32.20,32,99.76,83,254.39,79
47365,31.58,-86,31.47, 8,31.33,99,34.15, 0,194.51,18,242.99,-12
47470,30.76,-62,31.41,-19,31.61,70,34.15, 0,72.62,10,74.76,-63
47575,31.33,31,31.26, 9,31.46,-13,34.15,-32,3992.68,13,3970.24,-21
47680,31.33,-13,31.31,-17,31.50, 5,34.15, 0,6.95,-3,2.99,-21
47785,31.45, 3,31.33,12,31.55,-1,34.15,-32,3986.34,-5,3991.34, 3
47890,31.43, 4,31.34,-3,31.56,-6,33.17,32,3972.93,-3,14.15,-3
47995,31.43, 1,31.32,-2,31.52,14,35.12, 0,3968.48,-5,19.39, 3
48100,31.44, 5,31.35, 7,31.48, 0,33.17, 0,3957.68,-1,25.18,-3
48205,31.43,-13,31.45, 4,31.42,-24,35.12,-32,3944.45,-8,26.65,-9
48315,31.57, 4,31.57,-3,31.36, 9,33.17,16,3910.30,-8,46.28, 3
48420,31.49,-9,31.74, 5,31.10,-13,34.15, 0,3887.26, 3,53.78,-7
48525,31.72, 7,0.07,-5,31.02,-14,34.15, 0,3869.33,-6,83.78,15
48630,31.65,406,0.34,102,30.54,-9,32.20,32,3826.52,-124,3753.90,432
48734,31.27,54,0.53, 9,30.48,66,32.20,32,3904.39,36,47.74,-20
48839,31.88,39,0.52,-47,31.20,108,34.15, 0,3975.85,23,50.61,-26
48944,31.74, 0,0.40,17,31.11,-43,34.15, 0,103.54,-8,3932.13,-12
49049,31.53,-31,0.23, 6,30.99,12,32.20, 0,57.13,-44,3890.98, 9
49153,31.40, 6,0.10, 4,31.11, 3,34.15, 0,3993.11,-6,3963.54,13
49258,31.44,11,0.23,-7,31.15,-11,32.20,32,3979.94,12,21.10, 8
49363,31.46, 9,0.31,-2,31.06,-10,33.17,16,3993.35, 4,7.80,-7
49468,31.47,-4,0.25,-8,31.13,-7,33.17,16,1.34,-1,3989.21, 3
49573,31.48,36,0.28,-13,31.14,-13,34.15,-48,3943.41, 3,3955.67,-18
49678,31.30,-13,0.42, 9,31.01,12,34.15,-16,3977.01, 3,3983.90,-34
49783,31.38, 7,0.44,22,31.21,-19,32.20,32,3985.61,-10,3969.33, 0
49888,31.42, 3,0.47,26,31.23,12,32.20,32,3971.77, 6,3965.49,-49
49992,31.38,-36,0.55,45,31.23,-20,32.20,32,5.06, 8,3992.80,34
50097,31.51,29,0.58,-8,31.13,-57,34.15, 0,3987.20, 2,36.83, 8
50202,31.35,-94,0.86,28,30.81,118,33.17,16,127.74,25,3983.05,-55
50307,31.58,-23,0.41, 0,30.92,46,33.17,16,241.40,-2,3989.82, 8
50412,31.61,-41,31.62,-20,31.47,30,33.17, 0,146.22,-14,3971.59,-23
50517,31.42,-63,31.61,30,31.67,244,33.17, 0,106.46,-136,225.73,84
50622,31.27,-2,31.32,-17,31.46,-12,33.17, 0,4.51,13,3979.51,27
50727,31.23,11,31.46,-2,31.31,55,33.17, 0,47.01,12,3965.18,-2
50832,31.35,20,31.52,-4,31.63,-15,32.20,-16,12.07,-10,3970.24,11
50937,31.32, 1,31.43, 3,31.54,16,32.20,16,3990.06, 0,1.04,12
51042,31.36,15,31.45,13,31.55,-19,32.20,32,3981.83,-6,12.01, 7
51147,31.35,-8,31.48,-7,31.53,-7,32.20, 0,3971.77,-5,22.68,14
51251,31.33,17,31.48,14,31.51,32,34.15, 0,3968.72,-5,31.89, 2
51356,31.46,-33,31.59,-1,31.45,-6,34.15,-32,3961.40, 5,52.50,11
51461,31.44,23,31.68, 6,31.36,-17,34.15,-32,3942.38,-13,79.09,-3
51566,31.60, 8,31.76, 6,31.15,15,33.17,-16,3901.16, 3,97.07, 8
51671,31.71, 0,31.98,18,31.19,40,33.17,16,3869.09,-18,96.52,-20
51776,31.92,-64352,0.38,1134,30.51,2316,33.17, 0,3919.09,1073,3994.02,-1416
51880,31.81,-3,0.39,70,30.75,38,33.17,-16,3879.33,-1,72.20,22
51985,0.09,19,0.45,-35,31.47, 9,33.17, 0,3951.28,49,16.59,-52
52090,31.97,-8,0.54,27,31.06,-70,33.17,32,102.99,51,3959.82,-1
52195,31.80,-38,0.19,27,31.08,-70,31.22,32,123.35,-59,3897.01,49
52300,31.50,53,0.19,-34,30.72,86,35.12,-32,3.72,22,3968.11, 6
52405,31.69,-6,0.15, 9,31.09,-23,33.17, 0,3987.80,-5,20.12,12
52510,31.69,21,0.23,22,30.92,-16,34.15,16,3985.37,-2,14.57,-8
52614,31.77,23,0.19,-3,31.07, 7,32.20,16,3981.89,-4,6.10,-6
52719,31.67,-5,0.31, 5,30.81,50,32.20,16,3976.71,-7,3977.26,17
52824,31.69,19,0.35,-20,30.88, 2,32.20,-32,3971.65, 7,1.10,-8
52929,31.67,-48,0.40,55,30.91,-136,32.20, 0,3949.15,-69,3970.91,76
53034,31.67,23,0.40,-7,31.11,-15,32.20,32,3972.44,-7,3987.44, 6
53139,31.86,-31,0.69,41,30.88,-18,32.20, 0,3965.61,-13,41.10,89
53243,31.75,-132,0.50,-7,30.67,169,34.15, 0,121.04,11,3988.78,-95
53348,31.81,130,0.65,46,30.76,35,34.15,-32,332.74,35,3883.72,18
53453,0.03,10,31.84,-48,31.40,-3,32.20, 0,201.95,-38,3936.77,-2
53558,31.12,159,31.15,75,31.78,232,32.20, 0,19.82,-27,134.57,-5
53663,31.98, 8,31.18,15,31.40, 6,33.17, 0,34.39,31,3881.16,94
53768,31.15,17,31.33, 1,31.42,-5,33.17,32,57.20,-4,3963.29,-30
53873,31.42, 6,31.40,-1,31.47, 3,33.17,-32,37.87,-3,3960.49,-7
53978,31.35, 0,31.29,-1,31.51,10,34.15,-16,28.41, 7,3970.98,-11
54083,31.36, 5,31.25,14,31.61,-15,34.15,-32,44.94, 3,3955.00,-3
54188,31.41,-18,31.26,10,31.66,-9,34.15, 0,60.73, 5,3942.56, 2
54293,31.42, 1,31.23,-3,31.73,17,34.15,-32,77.80, 7,3917.56, 3
54398,31.49, 8,31.30, 8,31.88,-2,31.22,16,118.48,13,3885.61,-2
54503,31.81,25,31.51, 2,0.03,-14,33.17,-16,165.85, 9,3863.17, 3
54608,31.79,-38,31.84, 0,0.65, 8,33.17, 0,173.66,-13,3868.17,-72
54712,1.13,-267,1.23,-257,3.36,-765,33.17, 0,3929.09,-57,14.57,154
54817,0.19,-40,0.30,-16,0.80,52,34.15,-16,3964.57,-59,96.46, 4
54922,31.20, 6,31.26, 1,0.58,41,34.15,-16,3990.06,27,32.62,-34
55027,0.04,-51,31.85,-2,0.89,-4,32.20, 0,3989.82,-7,0.61,24
55132,0.00,-3,31.75,23,0.84,14,34.15,-32,7.32, 8,3985.55,10
55237,31.86,-12,31.61,-4,0.81,-23,32.20, 0,3990.55, 4,7.07, 4
55341,31.64,19,31.75,11,0.86, 3,34.15,-32,3992.26,-7,3986.71,-8
55446,31.96,10,31.66,-3,0.79,-11,33.17,-16,3986.59, 5,3982.87, 8
55551,0.29,21,31.81, 1,1.01,11,33.17,-64,7.62,-7,3971.65,39
55656,0.10,-1,31.78,10,0.95,-3,33.17, 0,3970.12,-3,59.51,31
55760,31.88,-57,31.58,38,0.98, 9,31.22, 0,3966.71,-16,109.45,30
55865,31.57,27,31.71,-21,0.85,-37,33.17,-32,3901.89,-12,66.46,-22
55970,31.71,-42,31.46,-8,0.36,-33,31.22, 0,3879.57, 4,112.62, 6
56075,31.56,-5,31.41,-6,31.98,-36,33.17, 0,3879.82,-2,111.16,-3
56180,31.30,-15,31.23,-4,31.83, 7,31.22, 0,3901.22,13,122.80,-24
56285,31.28,22,31.22, 2,31.57,10,34.15,-48,3928.84, 2,36.04,-6
56390,31.42, 3,31.22, 2,31.59,-20,30.24,16,3942.68, 6,3995.30, 4
56495,31.36,-26,31.34,21,31.51,28,32.20, 0,3940.67,-9,3987.56,-16
56600,31.47, 2,31.20,-10,31.60,35,30.24,32,3959.02,19,6.16,-7
56704,31.44, 0,31.19,12,31.36,-33,32.20, 0,11.65,18,36.40, 5
56809,31.47,-2,31.51,17,31.48, 5,32.20, 0,15.43,-10,43.17,-7
56914,31.49,-5,31.38,-7,31.32,-8,30.24, 0,3976.95,-10,1.83, 7
57019,31.49, 6,31.32, 1,31.31, 4,30.24,64,3973.84, 9,25.12,-5
57124,31.45, 4,31.32, 3,31.22,-2,32.20, 0,3986.83, 1,3994.09,-7
57229,31.52,-6,31.32, 0,31.26, 8,34.15,-32,4.09, 6,3982.32, 0
57334,31.49, 8,31.32, 8,31.28,-26,31.22,16,26.28, 7,3976.04,-6
57439,31.46,-27,31.30, 6,31.34,-26,31.22,16,42.80, 5,3971.10,-8
57544,31.45,14,31.31,-19,31.44,23,33.17,-48,61.04, 6,3950.98,-5
57649,31.45, 0,31.28,-1,31.57,-7,31.22,48,76.59, 5,3939.21,-6
57754,31.52,-16,31.28,-11,31.68, 4,31.22,48,98.72, 4,3920.24,-3
57859,31.58,-10,31.27,-10,31.84, 2,33.17,-16,113.23, 8,3895.91, 7
57964,31.73,36,31.46,16,0.22, 7,31.22,48,159.15,12,3870.55,39
58069,31.81,-54,31.75,14,0.48,61,33.17, 0,190.98,15,3900.91,-11
58173,0.63,-87,1.03,-224,2.96,-440,31.22,-48,3943.41,14,9.51,101
58278,0.21,44,0.44,-10,0.76,18,31.22,16,3984.63,-73,3992.93, 7
58383,30.92, 1,31.41,-30,0.61,25,33.17,16,3969.45,19,37.44,-97
58488,0.09,24,31.80,21,0.94, 8,31.22,16,3989.70,-1,3968.17,42
58592,31.88,10,31.83,15,0.81, 1,31.22,16,10.43, 6,3.60,-4
58697,31.83,-1,31.75,-17,0.84,26,31.22,-16,3985.91, 3,3986.95, 1
58802,31.76, 6,31.65,-23,0.84,-9,31.22, 0,3994.63, 4,3992.93,-2
58907,31.73, 1,31.77, 1,0.85,-12,31.22, 0,1.34,-8,2.74,-5
59012,31.81,-11,31.74, 3,0.80,-19,29.27,64,3988.17, 1,3990.73,-5
59117,31.83,48,31.72, 9,0.86,-1,31.22,32,3994.21, 9,3974.33,-1
59221,31.99,-65502,31.82, 9,0.90,-30,31.22, 0,3979.09,-7,3987.93,36
59326,31.86,-28,31.84,-3,1.00,53,33.17,-16,3974.70,-14,34.33, 0
59431,31.74,17,31.64, 0,0.98,20,33.17,-48,3945.18,-15,44.63, 0
59536,31.70,-3,31.55, 8,0.87,-26,31.22,16,3909.70,-5,28.48, 7
59640,31.74, 0,31.42, 1,0.56, 6,32.20, 0,3909.82,-9,86.83,16
59745,31.56,10,31.46, 3,0.29,-5,30.24,32,3901.10,-13,86.83,11
59850,31.49,-4,31.33, 2,31.93,-19,31.22,16,3870.43, 4,87.38,-6
59955,31.55, 0,31.29,10,31.69,-25,33.17,-32,3946.52,12,92.93,-1
60060,31.24,17,31.17,10,31.40, 4,31.22, 0,3947.62,-10,52.13, 2
60164,31.43,-20,31.19, 0,31.64, 2,31.22,32,3961.52,-4,26.16,-8
60269,31.57,-6,31.15,-8,31.59,-4,33.17,-32,3986.59,16,3988.54, 3
60374,31.54,12,31.28,-7,31.50, 8,33.17, 0,3976.71,-11,3985.49,22
60479,31.53, 4,31.24,-1,31.54,29,31.22, 0,3981.77,11,18.35, 4
60584,31.51, 3,31.28,-10,31.48,-23,31.22, 0,15.91,-1,6.10,-7
60689,31.43,-16,31.31, 5,31.40,-6,33.17, 0,0.18, 1,6.89,-2
60794,31.49,-10,31.30,18,31.50, 1,32.20,-16,3985.49, 0,3993.17, 1
60899,31.47,11,31.25, 8,31.49,-18,30.24,16,4.33, 5,3990.73, 1
61004,31.39, 6,31.27,-10,31.47,-5,30.24,16,12.62, 3,3984.76,-2
61109,31.46,-1,31.27, 2,31.50,12,30.24,48,21.89, 5,3974.45, 1
61217,31.43,-8,31.24,-13,31.54,11,32.20,-16,31.83, 5,3971.77, 2
61323,31.45, 4,31.24,-6,31.57, 2,34.15,-32,50.49, 6,3950.18,-2
61428,31.48, 9,31.29,-14,31.67,-12,32.20, 0,63.66, 7,3929.63,-3
61533,31.53,-8,31.29,-10,31.80, 3,32.20, 0,74.09, 3,3913.35,-4
61638,31.52, 8,31.22,12,0.08,23,32.20, 0,106.46,26,3896.34,-16
61743,31.66, 9,31.51,-11,0.39,-19,30.24,32,153.60,-2,3890.67,-3
61848,31.83,23,31.77,-1,0.99,44,33.17,-32,171.34,-17,3865.85,16
61953,0.69,-34,0.01,20,0.88,-44,31.22, 0,46.16,21,32.38,76
62058,31.98,-29,0.02,-7,0.65,25,33.17,-32,3927.87,-7,59.39,33
62163,31.52,30,31.36,17,0.72, 3,31.22,32,13.78,18,3943.60, 8
62267,31.94,-14,31.84,-7,0.88,-8,31.22, 0,3987.07,-6,6.46, 2
62372,31.79,-14,31.70,-14,0.81,-16,33.17,-64,3993.41, 3,3991.34,-10
62477,31.81,-8,31.67,-4,0.80, 0,33.17,-32,3992.32, 2,9.76,10
62582,31.72,-1,31.65, 2,0.73, 6,28.29,80,0.12, 1,3994.63, 1
62686,31.85,-6,31.67,13,0.86, 3,30.24,48,5.49, 0,10.79, 7
62791,31.90,-25,31.90,-13,0.79, 5,32.20,-16,4.88, 5,22.32, 1
62895,0.10,-17,31.63,-15,0.97,-4,30.24,48,3943.66,-1,41.52,51
63000,31.53,24,31.64, 7,0.92, 0,30.24,32,3951.77,-12,42.07,-13
63105,31.65, 8,31.51,-19,0.71,-7,32.20, 0,3906.59,-3,29.15,-6
63210,31.56,10,31.34,-7,0.51, 4,32.20,-32,3900.85, 3,52.32, 6
63314,31.68,-25,31.38, 2,0.40,-21,32.20,16,3927.99, 0,119.51,22
63419,31.29, 2,31.46,-4,0.11,-22,30.24,32,3882.99,-21,83.17,-41
63524,31.50, 9,31.19,19,31.73,-4,28.29,32,3884.76,12,75.91, 4
63629,31.54,-2,31.22, 2,31.44,-19,30.24,32,3933.78,14,80.73,-3
63733,31.26, 1,31.44,14,31.34, 4,32.20, 0,3968.29, 3,89.39,-39
63838,31.37,-1,31.35, 8,31.30,19,30.24,32,3968.23,13,50.91,-12
63943,31.45,-15,31.40,-3,31.22,-13,32.20, 0,3980.37, 9,66.04,-3
64048,31.54,-18,31.41,-2,31.14,-2,31.22,-16,37.99, 9,103.35, 2
64153,31.47,-6,31.54,14,30.83,11,31.22,16,72.74,-6,126.10,-3
64258,31.72,-7,31.67, 2,31.02,21,31.22,16,34.09, 1,128.11,-3
64363,31.90, 7,31.57,-16,31.21,-26,31.22, 0,37.87, 7,94.15,-22
64468,31.78,-8,31.49, 5,31.21, 0,31.22, 0,87.13,16,0.55,65521
64573,31.69,-15,30.96,-29,30.89, 1,32.20,16,26.52,-78,3992.13,53
64678,31.67,-41,31.48,11,31.98,26,30.24,32,3988.11, 1,3958.11,23
64783,31.66,-38,31.17,-11,31.18,-11,32.20, 0,6.83, 9,24.39,19
64887,31.23,22,31.60,14,31.30,-6,30.24,64,50.67,-15,5.49,-38
64992,31.54,17,31.52,-17,31.29,29,32.20, 0,3947.20,-22,3946.34,-3
65097,31.54,19,31.22,-1,31.29,33,31.22,16,3938.72, 9,3977.80,-5
65201,31.67,12,31.36,-7,31.19,-1,33.17,-16,3974.70, 7,3988.48, 8
65306,31.60, 4,31.58,13,31.16,-11,33.17, 0,1.28, 3,37.62,-2
65411,31.59,11,31.54,-18,31.11,20,31.22, 0,3986.83,-6,42.99, 0
65516,31.70,24,31.39,14,31.14,-3,34.15,-48,3991.83, 1,10.43,-5
65621,31.77,26,31.39,-2,31.15,-12,32.20,-32,3978.66,-10,12.44,-5
65727,31.89,28,31.37,-3,31.14,-9,32.20,-32,3981.46,-2,23.11, 3
65833,0.04,-12,31.36, 8,31.06,-27,33.17,-16,3971.59, 3,39.94,-5
65937,31.95,14,31.44, 8,30.96,11,31.22,16,3974.09,-5,25.79,-12
66042,0.20,10,31.58, 9,30.98,-9,33.17,-16,3964.45,-7,3972.62, 7
66147,0.25,18,31.52,-10,30.92,22,31.22, 0,3974.02, 8,3994.70,11
66252,0.15,-18,31.62, 4,30.91,-10,31.22,-32,6.40,-3,9.02,-8
66357,0.21,12,31.57,-12,30.92,14,31.22,-32,6.65, 4,3963.60, 8
66462,0.16,-23,31.48,-13,30.96,-2,32.20,16,41.77, 8,3977.87, 5
66567,0.03,-31,31.48,-10,31.06,28,32.20,-32,43.54, 1,3958.17,-10
66672,31.86,35,31.47,19,30.90,-9,32.20,-32,17.62, 9,3903.90, 0
66777,31.94,-24,31.26,-68,31.00,36,30.24, 0,55.30, 5,3992.07, 8
66882,31.58, 5,31.22,11,31.21, 5,30.24,64,40.18,-7,3980.79,-24
66987,31.59,10,31.34, 8,31.30,-10,32.20,-32,39.39,-2,3948.96,-2
67092,31.59,-21,31.36, 9,31.33, 3,32.20, 0,23.23,-1,3964.09, 3
67197,31.47,-18,31.40,23,31.47,-5,32.20,-48,14.45,-4,3971.40, 8
67302,31.34,-9,31.58, 2,31.50,-10,31.22, 0,4.82,-3,3989.88, 7
67407,31.26, 6,31.64,-11,31.48,-19,31.22, 0,3982.38,-18,3983.96,12
67512,31.22,13,31.74,-2,31.51,-4,31.22, 0,3974.63,-3,3960.49,-12
67617,31.07, 9,31.87, 8,31.52,-7,33.17,-32,3961.52,-6,3911.71,-23
67722,31.25, 1,0.06, 0,31.59, 1,33.17,-64,3966.04,-14,3882.13,23
67826,31.19,-4,0.29,-19,31.84, 9,31.22,32,3929.33, 0,3841.89,14
67931,30.76,-80,1.93,-142,1.36, 9,31.22, 0,3991.52,-108,104.94,-62
68035,31.91,32,0.06,-12,0.07, 9,33.17,-32,3943.23,33,3935.00,-13
68140,30.55,-26,0.22,-16,0.36,-9,31.22, 0,27.44,15,18.23,-68
68245,31.21,16,0.12,-3,0.32, 5,30.24,16,29.57, 2,3975.61,-6
68350,31.24,-1,0.35, 8,0.05,21,30.24,16,35.67, 1,41.22,20
68455,31.04, 4,0.52,-6,0.02,11,30.24,16,11.10,-11,19.94,-12
68560,31.11,-4,0.43,-9,0.04, 6,32.20,-32,3988.72,-7,1.89,-6
68664,31.11, 6,0.31, 0,0.15, 1,30.24,48,3992.32, 0,3988.72, 4
68769,31.22,-5,0.32,17,0.04, 4,30.24,16,10.06, 6,44.09,15
68874,31.25,15,0.42,-5,0.23, 7,31.22, 0,18.29, 9,29.76,15
68979,31.46,-30,0.38,15,31.95,-9,33.17,-32,51.10,16,114.76,35
69084,30.73,-28,0.57,21,31.23,15,31.22, 0,60.49, 8,147.50,-35
69188,31.24,34,0.59,-8,31.16,-3,32.20,-16,9.76,-7,90.06,-8
69293,31.28,-1,0.28,-10,31.12, 3,32.20,-16,26.04,-3,60.43,-8
69398,31.35,-3,0.20,-21,31.18,12,32.20, 0,10.24,-7,3984.70,-7
69502,31.66,-10,31.90,-4,31.19,-16,28.29,80,32.26, 4,39.88,43
69607,31.34,-26,31.83, 3,31.10,-6,32.20, 0,23.05,-5,40.67,-29
69711,31.48,24,31.73,18,31.09,-22,30.24,16,50.55, 2,3953.17, 1
69816,31.60,-21,31.73, 3,31.20,28,30.24, 0,44.57, 5,53.60,23
69921,31.42,-15,31.22,13,31.25,22,32.20, 0,77.68, 8,36.34,13
70026,31.29,-4,31.36,13,31.49,-16,32.20,-32,87.56,-3,3981.77,-42
70131,31.54,12,31.30, 0,31.42, 1,32.20,-32,75.49,-6,3992.13,-18
70235,31.50,15,31.38, 4,31.52,12,32.20, 0,14.88,-17,3987.26,-16
70340,31.68, 7,31.21,-3,31.54,-5,32.20, 0,3980.24, 1,3951.22,-12
70445,31.71,-8,31.11, 0,31.50,-7,32.20, 0,3985.12, 8,3966.52, 7
70550,31.62, 2,31.12,-6,31.49,-7,31.22,16,3987.20, 4,3977.93,-5
70655,31.68,-1,31.17,-3,31.57,-2,31.22,48,0.91,-2,3973.05,-2
70760,31.75,-2,31.15,-1,31.54, 9,31.22,16,3.96,-2,4.21, 0
70865,31.80, 6,31.09, 4,31.53, 5,29.27,48,0.85, 1,13.60,-2
70970,31.93,-8,31.09, 3,31.54,24,33.17,-16,3990.55,-4,8.11, 0
71075,0.13, 4,31.10, 8,31.58,-14,31.22,16,3992.50, 2,6.89, 6
71180,0.28,10,31.14, 7,31.54, 5,29.27,48,3995.12,-3,37.26,13
71284,0.33,-26,31.26, 1,31.50,16,29.27,64,3986.89, 1,61.34, 1
71389,0.58,18,31.35,22,31.55, 1,31.22, 0,4.33, 6,72.26, 8
71494,0.88,-56,31.37,63,31.79,-11,31.22, 0,7.74,38,134.94,22
71599,1.69,-71,31.76,106,31.82,37,31.22, 0,57.44,-10,111.77,-67
71704,0.85,-7,31.58,13,0.08,41,31.22, 0,2.26,21,9.63,77
71809,0.83,-14,31.42, 3,31.94, 8,32.20,-16,21.40, 5,33.29,-11
71914,0.84,-20,31.51, 0,0.10,12,32.20, 0,3993.29,-7,3990.43,-14
72019,0.81, 9,31.49,-8,31.98, 1,32.20,-32,3987.50, 1,3969.57,-4
72124,0.89,-52,31.51,-6,31.94,25,30.24,32,3.48, 1,3984.63, 0
72229,0.85,-12,31.50,20,31.98, 6,34.15, 0,3979.70,-8,3980.61,-1
72333,0.90,-18,31.72,-12,31.93,10,32.20, 0,3945.24,-18,3971.65,-32
72438,0.94,63,31.54,-114,31.87,-145,30.24,32,3945.18,106,3921.40,18
72543,1.51,-159,31.53,-3,31.22,116,30.24,32,14.39,39,51.10,160
72648,0.90,83,31.45,39,31.38,-21,29.27,48,3960.79,-22,3867.44,28
72752,0.65,25,31.41,29,31.39, 7,33.17,-48,3977.44,10,3902.68,-5
72857,0.35,24,31.11,43,31.17,-3,31.22,-32,2.26,-2,3880.12,-33
72962,0.18,-31,31.32, 5,30.97,13,31.22,32,3946.10,-8,3935.61, 9
73067,0.17, 4,31.32,15,31.30,47,30.24,16,3988.84, 8,3957.93,23
73172,31.99,-19,31.25, 2,31.26, 0,32.20,-32,32.99,12,3947.93, 5
73277,32.00,-25,31.23, 2,31.25,10,30.24,32,26.77, 4,16.40,31
73382,31.62, 0,31.21,-3,31.25, 7,31.22,16,25.37, 1,1.52,-22
73487,31.66,11,31.36, 7,31.28,18,33.17, 0,25.12,-10,3966.83,-10
73592,31.62,-5,31.31,-12,31.32,20,31.22, 0,3994.57,-2,3937.74,-5
73697,31.58,18,31.24,10,31.47,-22,32.20,-16,9.33, 4,3982.56,12
73802,31.55, 3,31.31,-5,31.50, 2,32.20,-32,18.48, 1,9.57,21
73907,31.38,29,31.30, 3,31.35,-4,30.24,32,35.67,13,59.51,-1
74012,31.38,-3,31.43, 5,31.35,-12,32.20, 0,37.26,-1,35.43,-1
74122,31.38,108,31.45,29,31.30,48,31.22,-32,29.88,-13,32.50,-18
74227,31.47,22,31.31, 2,31.43,-10,33.17,-32,3985.00, 1,3976.28,-1
74332,31.37,13,31.31, 5,31.47,14,32.20,-16,3983.72,-2,3973.90,-12
74437,31.46, 0,31.37, 2,31.41,-11,32.20,-16,3976.59,-5,3981.95,-3
74542,31.40,11,31.42,15,31.43, 7,30.24,32,3967.44, 1,3988.54, 3
74647,31.37,-8,31.59, 5,31.47, 3,32.20,-32,3962.80,-1,3.41, 2
74752,31.46,-10,31.81,-5,31.47,20,32.20, 0,3957.01,-11,21.65,10
74857,31.24, 5,31.93, 3,31.35, 2,31.22,16,3922.01, 0,3984.76,-3
74962,31.21, 8,0.20,-9,31.28, 0,33.17,-16,3895.85,-10,3932.26,-5
75067,31.08, 2,0.36,20,31.53,-15,31.22,-16,3860.79,-3,3873.60,-23
75172,30.88,42,1.48,-139,0.24,66,31.22,-16,3949.39,-25,5.37,65392
75277,31.88,-6,0.10, 0,31.84,-20,31.22,16,3916.46,55,3929.09,91
75382,30.84, 6,0.56, 5,0.11,-21,31.22,16,3993.60,-4,9.70,-12
75487,31.31, 4,0.29,-2,31.94,-19,29.27,80,3988.78, 0,3987.38,19
75591,30.98, 4,0.44,13,31.97,-7,33.17, 0,3993.72, 3,3995.18,-8
75696,31.20,-7,0.42, 9,0.00,65525,31.22, 0,3991.28,-3,3991.65,-1
75801,31.18,-12,0.42,-1,31.98, 8,33.17,-32,3.60,-3,9.15,10
75906,31.11,11,0.34,-3,0.18,23,31.22, 0,27.50,10,9.63, 0
76011,31.41, 3,0.41,25,0.12,-29,32.20,-16,69.27,22,65.43,19
76116,31.11, 5,0.66,26,31.58,-32,32.20,-32,84.02, 1,138.90,-12
76220,31.10,30,0.64, 4,31.20,35,30.24,32,59.70,-10,94.57,12
76325,31.46,-7,0.42,-20,31.12,-5,32.20,-32,37.62,-4,83.23, 6
76430,31.33,35,0.29,-7,31.12,-6,30.24,32,36.71,-6,2.26,-14
76535,31.38, 5,0.07,-19,31.09,13,32.20, 0,68.41, 8,12.80,-6
76639,31.27, 1,31.96,-6,31.07, 2,31.22,16,85.85,-2,3995.06,-10
76744,31.48,12,31.79, 3,31.19, 7,29.27,32,83.05,-5,3979.76, 0
76849,31.50,10,31.60,-3,31.33, 0,31.22,32,55.98,-8,3982.87,-3
76954,31.52,-27,31.40,-6,31.29,-41,33.17,-32,40.79, 7,13.84, 3
77059,31.50,-2,31.37,-21,31.42, 5,32.20,-16,43.90,-6,3970.24,-2
77164,31.53, 0,31.28,-1,31.46, 5,32.20,-16,18.72,-6,3974.70,-2
77268,31.57,-45,31.27,-34,31.39,-48,30.24,48,20.73,18,3977.56,12
77373,31.59,-14,31.07,16,31.53,-21,30.24,48,3995.61, 4,5.18,-9
77478,31.51,-9,31.20, 6,31.48,16,30.24,32,2.50, 2,11.22,-7
77583,31.59,-26,31.21, 2,31.49,10,30.24, 0,3989.27,-7,15.91,-3
77688,31.55,-12,31.19,-4,31.48, 4,30.24,32,3966.40,-6,6.89,-3
77793,31.52, 4,31.27, 0,31.42,-26,32.20, 0,3946.95,-9,3978.35,-7
77898,31.52,-6,31.37, 5,31.25,-8,31.22,16,3945.06, 9,3972.20,-1
78003,31.59,-23,31.48,-5,31.20,28,31.22,16,3958.35,-1,3986.83, 7
78108,31.66,-19,31.44,-1,31.25,14,31.22, 0,3983.35, 7,1.46,13
78218,31.88,27,31.35,-21,31.18,-5,30.24,32,3993.41, 8,36.95, 9
78324,0.21,-3,31.26,13,31.14,12,32.20,-32,21.59, 6,60.30, 4
78429,0.49,11,31.38, 7,31.29,13,32.20,-32,18.48, 1,60.91,15
78534,0.59, 0,31.38,-9,31.40,-13,32.20,-32,26.46, 4,99.82, 3
78639,0.63,-14,31.48,14,31.49, 8,32.20,-32,47.74,-5,136.95,-9
78744,1.40,103,31.57,-61,31.74,17,32.20, 0,0.00,57,98.05,87
78849,1.94,-56,31.87,100,31.84,71,32.20, 0,51.77,-22,121.71,28
78954,0.21,-62,31.43,-25,0.35,63,32.20, 0,66.16, 6,172.62,-23
79059,0.47,-30,31.41,12,0.61,-4,30.24, 0,64.51,-7,83.11,27
79164,0.16,21,31.48,-1,0.57,-15,32.20,-32,7.80,-7,12.56,-33
79268,0.63,14,31.41, 8,0.56,-6,32.20, 0,2.87,-1,3983.78,20
79373,0.47,-1,31.39,-1,0.50,13,32.20,16,3995.91,-65530,6.16,-6
79478,0.51,-3,31.39, 7,0.54,-8,33.17,-32,1.95, 2,6.59,-3
79583,0.47,-3,31.43,-3,0.56,13,31.22, 0,2.62,-1,3992.62,-2
79687,0.53,17,31.42,11,0.55, 8,33.17, 0,0.55, 0,3991.71, 7
79792,0.44, 0,31.42,16,0.58,28,31.22, 0,3994.76, 4,1.10,-4
79896,0.42,12,31.40,-14,0.53,-3,33.17,-32,3989.21,-1,3980.98,-13
80001,0.47,-6,31.44,-6,0.56, 0,31.22,32,3966.52,-8,3964.63,16
80106,0.67,-6,31.60, 7,0.61,18,31.22, 0,3940.24,-16,3965.12, 1
80211,0.65,14,31.40, 1,0.33,47,30.24,48,3917.07, 8,3910.55,17
80316,0.76,16,31.27, 0,0.09,-3,32.20, 0,3877.56,-11,3885.30,31
80421,0.68,-17,31.07,10,31.78, 3,32.20, 0,3899.94, 2,3952.68,22
80526,0.34, 0,30.80,22,31.62,-15,32.20,-32,3931.04,11,3995.73,-65501
80631,0.01,-17,31.16,21,31.63, 4,33.17,16,3956.28,-5,25.85,-21
80735,0.04,13,31.21, 3,31.44, 7,33.17,-48,3951.28, 3,3935.85,-13
80840,31.88, 5,31.14,-4,31.37, 8,31.22,-16,3939.09, 3,3921.52, 2
80944,31.71, 2,31.24, 6,31.31,-9,30.24,32,3948.66,-2,3946.77,-1
81049,31.79, 5,31.16,-6,31.31,-3,32.20, 0,3947.44, 7,3935.61,-15
81154,31.74,-14,31.13, 4,31.52,-11,32.20,-32,3986.52, 5,3985.67, 2
81259,31.56, 5,31.30, 9,31.25, 4,33.17,-48,1.22,-13,3966.10,-14
81363,31.57, 6,31.43, 3,31.38,-17,32.20, 0,3953.41,-18,3979.15,-12
81468,31.54, 2,31.31, 0,31.29,-18,31.22,-16,3941.52, 2,3964.39, 4
81573,31.40,-12,31.50,12,31.17,27,31.22,-16,3948.60,11,3945.98, 1
81678,31.31,-8,31.60,-6,31.27,-6,31.22,-16,3940.91,-7,3964.15, 0
81783,31.24,12,31.69, 2,31.26, 2,31.22,-16,3961.59, 3,3983.23, 4
81888,31.39,23,31.68,-2,31.35,-4,29.27,16,3963.05, 2,3987.80,22
81993,31.31, 2,31.75, 2,31.17,-1,33.17,-16,3948.54,-6,2.01,-5
82098,31.46,16,31.67,-7,31.21,-11,32.20, 0,3948.54, 6,4.94, 5
82202,31.40,13,31.69, 1,31.00,-26,30.24,32,3986.04, 9,10.30,-9
82307,31.39, 3,31.79, 1,31.01,-18,32.20,32,3.60,-4,1.40,-7
82412,31.38, 5,31.68, 1,31.19,14,32.20, 0,3985.18,-6,3975.00,-6
82517,31.36,12,31.57, 6,31.25,20,30.24,32,3990.49, 3,3912.80,-42
82622,31.44, 7,31.74,13,31.05,-5,32.20, 0,3985.73, 3,3845.12,-19
82728,31.63,11,31.96,17,31.15,-15,31.22,-16,72.13,10,3965.06,16
82834,31.20,11,0.66, 3,31.25,24,32.20,32,68.23,-15,59.27,52
82938,30.77, 6,0.12,-29,31.45,24,32.20, 0,33.17, 9,124.45,29
83043,30.99,15,31.72, 7,31.42,14,32.20, 0,63.11, 7,3.11,-25
83147,31.22, 9,31.94, 9,31.26,12,32.20,32,45.73,-9,3972.01,-26
83252,31.25,-4,0.20, 7,31.28, 5,32.20, 0,23.60, 0,16.28,32
83357,30.68,21,31.97,-13,31.02,13,30.24,32,3989.21, 7,4.57,-61
83462,31.01,-2,31.87,-3,30.88, 2,34.15,-64,3965.37, 8,3942.01, 4
83567,31.15,-1,31.86,-8,31.44,22,30.24,32,3983.66, 5,3775.06,-80
83672,31.55,11,0.56,39,31.02, 1,32.20,16,3980.61,20,3744.21,94
83776,31.30,-38,1.42,-8,31.62,27,30.24,32,3993.05,25,133.84,43
83881,31.20,-4,1.03,-9,31.75,24,32.20, 0,89.63,15,54.51, 9
83986,31.67,16,0.64,-18,31.81,-10,32.20,-32,66.59,-23,3924.82,10
84091,31.97, 2,31.87,-10,0.02, 6,32.20, 0,3.78,-19,3957.62, 2
84196,31.52,-18,0.16, 8,31.90,20,31.22,16,3949.82,-6,15.49,36
84301,30.15,-23,0.86,18,31.66,-1,33.17,-48,3944.63,-28,50.85,-33
84406,31.20,25,0.11,-37,31.70,16,31.22,-16,3945.79, 4,3994.39,-38
84511,31.74,-23,31.43,10,31.54,-8,33.17,-16,24.27,11,3962.44,11
84616,30.44,-79,0.51,50,30.99,-34,31.22,-16,8.29,-16,21.40,29
84721,30.89,28,31.72,-1,32.00,-2,33.17,-16,93.35,-16,46.46,-140
84825,31.52, 5,0.09, 1,0.18,-13,33.17,-16,27.80,-18,3891.04, 9
84930,31.42,-9,0.37,23,31.81,-8,33.17,-48,56.52, 0,114.33,72
85035,31.28,26,0.53,-4,31.55, 4,31.22,16,3964.70,-10,60.85,23
85140,31.39,34,0.81,-8,31.48,-28,31.22, 0,3897.20,22,3885.85,-63
85244,31.58,23,1.33,19,31.59,16,33.17,-16,3994.70,-65496,3728.05, 1
85349,31.67, 8,0.85, 5,31.88,17,31.22,32,86.22, 7,3858.41,29
85454,31.77,14,0.93,-12,31.76,-25,31.22, 0,70.85,-15,3921.95,22
85559,31.73, 8,1.05, 9,31.68, 6,29.27,32,33.23,-17,3910.30,-27
85664,31.77,-27,1.08,-21,31.85,-2,30.24,-16,15.49,-6,3891.52,12
85769,31.62,-11,0.75,-16,31.75,-5,32.20,16,37.74, 6,3900.73,32
85873,31.59,18,0.80,145,31.65,-95,30.24,16,59.76,36,3948.48, 6
85978,31.35,-4,0.43,28,31.88,-5,32.20,16,47.44, 5,3856.52,-93
86083,31.73,-22,1.04,-52,31.93,13,32.20, 0,80.37, 0,3.84,-1
86187,31.74, 4,0.85,-2,31.79, 1,32.20, 0,77.32,-21,3980.12,-27
86292,31.75, 0,0.77, 2,31.75,23,32.20, 0,43.96,-4,1.52,30
86397,31.30,-14,1.01,-63,31.96,-12,32.20, 0,3981.89,-16,3990.49,-67
86501,31.55, 5,1.25, 6,31.80,18,32.20,-16,3976.52, 6,1.52,56
86608,31.57, 2,0.94,17,31.75,30,32.20, 0,3958.66,-9,29.88,-1
86714,31.60,27,1.01, 0,31.73,17,31.22, 0,3952.74, 5,16.46, 3
86819,31.62,-18,0.95, 5,31.75,-12,32.20,-16,3968.35,12,59.94,10
86924,31.50,-15,0.95, 8,31.57, 2,32.20, 0,17.32,22,45.43,33
87029,31.02,-21,0.83,-10,31.40,14,32.20,-32,114.39,29,61.89,-18
87134,31.62,14,31.93,-19,31.62,50,30.24, 0,108.96,-2,25.73,14
87238,31.62, 0,31.61,-16,31.77,32,30.24,32,74.09,-11,5.79,-2
87343,31.28, 5,31.52,-1,31.66,-27,29.27,48,14.70, 2,24.94,13
87448,31.12, 3,31.54, 1,31.69, 6,33.17,-16,1.22, 0,7.07,-4
87553,31.21,20,31.54,13,31.68,-11,31.22, 0,10.73,-3,3978.60,-9
87657,31.22, 1,31.58,-6,31.71,-12,33.17,-64,5.67, 6,3972.38, 6
87762,31.36,20,31.49,-3,31.75, 3,33.17,-32,16.65,-4,3949.39,-4
87867,31.56,20,31.39,-10,31.44,-16,33.17,-32,3.41,-12,3884.02,-24
87972,31.72,-17,31.34,-5,31.09,-16,32.20,16,63.17,36,3920.55,-24
88077,31.16,66,31.79,82,31.62,-166,32.20, 0,154.21,38,3902.44,16
88182,31.64,424,0.37,-44,0.86,-104,30.24, 0,152.32,-30,3904.15,-152
88286,1.32,-157,2.09,-3,0.20,97,30.24,32,25.98,20,46.04,-11
88391,29.83,105,0.21,20,1.95,-81,31.22, 0,3880.73,88,149.88,161
88496,31.71,-50,0.02,61,0.74, 9,33.17, 0,3985.18,21,3882.20,245
88601,31.32,-16,0.08, 6,0.49,-54,30.24,16,2.20,-8,0.30,31
88706,31.18,-6,0.03, 2,0.44, 4,30.24, 0,2.38,-2,3989.45,-23
88811,31.22, 4,31.98,-10,0.44,-24,34.15, 0,3993.72,-5,4.70,-10
88916,31.22, 8,0.00, 6,0.49,10,32.20, 0,3996.04,-65533,3985.85,-1
89021,31.21,16,0.03,-12,0.49, 9,33.17,-16,3996.04, 0,4.45,-2
89126,31.20,-7,0.02, 1,0.49,-1,29.27,48,1.04, 0,3992.74,-1
89231,31.23,-20,0.03,-9,0.48, 0,33.17, 0,1.22,-2,3992.44,-7
89336,31.26,20,0.04,17,0.50,33,33.17, 0,3.35,-8,19.51,15
89441,31.21, 4,0.02,38,0.47,-18,33.17,-32,8.78, 4,3953.90,-7
89546,31.65,-65,31.98,12,0.48,-21,32.20,-16,3990.55, 1,14.57,48
89651,31.28,40,31.98,-9,0.55,-24,34.15,-32,3979.94,11,3977.99,21
89755,31.09,-17,32.00,-11,0.49,-14,32.20, 0,3985.00,-13,12.87,-42
89860,31.23, 9,31.92, 5,0.57,-24,32.20, 0,3989.21,-4,20.73, 2
89965,31.40,-33,31.88,13,0.60,24,33.17,-48,10.98, 3,41.40,50
90070,31.24,38,31.91,-6,0.49,-1,31.22, 0,18.54,13,3980.43,11
90175,31.13,-16,0.13,35,0.36,56,31.22,32,52.44,20,3930.37,-52
90280,30.99,35,2.25,85,0.50,-80,33.17,-64,12.20,-28,152.56,-133
90384,0.36,274,0.59,-95,31.89,-158,31.22,32,119.45,96,3955.85,13
90490,30.74,-431,31.13,42,0.69,183,30.24,48,156.59,-48,92.07,-15
90595,0.74,121,2.38,174,31.47,193,30.24,16,48.72,-8,3972.13, 0
90700,31.69, 1,1.00,-61,31.94,-9,32.20, 0,19.94, 2,33.05, 5
90805,31.56,26,1.24,41,31.89,25,30.24,32,3976.83,-10,3964.02,12
90910,31.72,53,1.60, 9,31.73,69,32.20,-32,3940.12, 9,13.72,-89
91015,0.24,-23,0.89,-15,0.22,-36,31.22,16,4.82, 3,72.32,-106
91120,0.13,-6,0.67,17,0.15, 5,31.22,16,3968.48, 5,22.87,-5
91224,31.99,-29,0.86,-2,31.90,39,31.22,48,3965.24, 3,42.87,-10
91329,31.84,29,0.71, 9,31.84,31,31.22,32,3994.82,10,3991.59, 9
91434,31.45,-85,0.81,-11,31.88,14,31.22,32,25.55, 5,77.26,-15
91538,30.96, 0,0.77,-44,0.48,-16,33.17,-32,28.17,-2,3987.68,46
91643,31.95,49,1.36,67,0.37,-124,31.22, 0,1.83,65495,3871.95,78
91748,0.05,23,1.62,-15,0.28,21,31.22, 0,3986.71, 2,3983.17,36
91853,0.37,77,0.88,-42,0.27,-21,31.22, 0,3966.16, 0,32.93,-7
91958,0.14,-7,1.41,14,0.46,-18,33.17,-32,3937.50, 3,48.17,-31
92063,31.83,-18,1.21,-24,0.43,17,31.22, 0,3926.46,-4,90.85,27
92168,31.61, 3,0.68,-29,0.28,-9,31.22, 0,3924.82, 8,134.15,12
92273,31.68, 7,0.39, 9,31.92, 1,32.20,-16,3982.38,24,165.18,16
92378,31.78, 7,0.37,-2,31.96,20,34.15,-48,11.40,-10,44.82,-45
92483,31.62,-17,0.54,10,0.05,37,30.24,16,0.67,24,3954.51,49
92588,31.25, 3,0.38, 3,0.17,-25,32.20,-16,3973.54, 6,46.46,65
92693,31.12,21,0.41,21,31.72,-26,33.17,-32,3991.10,12,250.00,29
92797,31.46, 9,0.41, 1,31.61, 0,31.22, 0,2.01,-6,153.66,-59
92902,31.64, 1,0.69,-7,31.64,-9,31.22,32,3967.50,-25,3948.41,-17
93007,31.41,14,1.10,33,31.77,-26,32.20,-16,3931.04,-19,3809.39, 0
93112,30.99,23,1.40,-70,31.93, 8,30.24,16,3955.49,23,3825.98,-81
93216,30.89,-69,1.18,-24,0.11, 2,30.24,16,52.44,-2,110.91,-19
93321,31.23,15,1.26,-27,31.66,18,32.20,-16,143.17,-26,3849.70,20
93426,31.46,11,0.58, 2,31.39,16,32.20,-16,86.40, 1,3966.65, 4
93531,31.46,-4,0.47,-12,31.63,-16,32.20,-16,45.73,-13,3.54, 4
93636,31.24,-21,0.26,-13,31.75,-7,32.20,-32,31.59,-5,6.59,-24
93741,31.14,-14,0.16,-4,31.67,-7,30.24, 0,30.79, 1,16.46,-1
93845,31.00,-3,0.16, 6,31.59,18,32.20,-16,5.12,-8,4.27,-7
93950,31.07,-7,0.13,-12,31.61, 3,32.20,-16,3988.84,-3,3980.98, 0
94055,31.14, 7,0.16, 9,31.58,-4,32.20,-16,3980.37,-2,3976.89,10
94160,31.30,33,0.11,-25,31.69,-5,32.20,-16,3984.21, 4,3962.50,-2
94265,31.38,10,31.96,-34,31.69,35,32.20, 0,3981.71,15,3952.87,21
94370,31.36,-50,31.03,-57,31.73,27,32.20, 0,9.33,-12,3943.17,44
94475,30.92,15,31.38,78,31.36,-17,34.15,-32,7.01,-4,3884.76,-124
94580,31.91,21,1.34, 9,0.09,82,30.24,32,69.27,52,3857.38,177
94685,2.30,158,1.06,28,31.49,-344,32.20,-32,28.05,42,3883.66,-53
94790,29.76,438,31.83,54,31.28,16,32.20,-32,3895.55,-127,3939.21,-440
94894,31.00,-88,0.17,10,0.37,-11,32.20,-32,3991.95,14,77.99,-3
94999,31.12,-28,0.20,28,0.39, 7,32.20, 0,3990.00,-2,3955.79, 1
95104,31.25,-33,0.28,-28,0.25,20,30.24, 0,3986.34,-3,3983.41,-31
95209,31.13,-5,0.15,25,0.36,-27,32.20, 0,3.78,-2,1.40,65510
95313,31.19, 9,0.16, 6,0.40,-15,30.24,32,3992.93, 5,3987.99, 0
95418,31.18, 5,0.18,-14,0.40, 9,30.24,32,3996.04,-3,3988.17, 2
95523,31.19,-12,0.16,11,0.40,-7,29.27, 0,0.73,-2,2.80, 4
95628,31.17, 8,0.16,-2,0.38,-4,31.22,-32,3996.04,-65531,3994.57,-6
95734,31.17,-3,0.16,-1,0.40, 5,33.17,-32,3995.55, 2,5.18, 3
95839,31.10,-10,0.18, 5,0.35,-33,32.20,-16,9.82,-1,37.56,-26
95944,31.41,-43,0.10, 6,0.33,-7,32.20,-32,21.40,20,16.95,26
96049,31.04,19,0.38, 5,0.33,21,32.20,-32,37.32,-11,3985.18,-59
96154,31.21,-24,0.36,18,0.34,-23,30.24, 0,34.88,-18,24.63,-20
96258,31.25,12,0.49,-1,0.19,-10,30.24,32,54.82,-18,29.27,-39
96363,31.29,-6,0.57,-1,0.36,13,30.24, 0,61.95,-3,3979.09,-3
96468,31.42,27,0.77,-29,0.13,15,30.24, 0,46.22,-28,3980.67,-25
96573,31.94,-15,1.13,-31,31.72,11,29.27,48,3965.85,-48,3934.70,33
96678,1.17,-13,1.40, 3,31.30,13,31.22,16,28.96,31,3981.95,173
96783,0.46,-27,1.05,-143,31.70,62,33.17,-32,39.15,31,74.21,95
96887,31.01,-64,31.85,69,0.67,15,32.20, 0,49.70,-13,133.23,-78
96992,30.00,-125,0.92,60,0.88,36,32.20,-32,11.40,-54,24.02,-123
97097,0.27,-110,1.75,108,0.13,-39,31.22,-16,20.18,-19,3990.73,-41
97202,31.98,28,0.99,-51,31.90,26,31.22, 0,3993.78,-1,3985.24,-4
97306,31.95,56,1.12,-28,31.92,14,31.22,32,3986.89,-7,3972.87,-10
97411,0.30,115,1.60,-8,0.17,92,31.22, 0,3942.74,-23,3964.88,71
97516,0.99,55,1.19,67,31.56, 1,30.24,32,3956.52,31,3827.32,170
97621,31.86,-7,1.06,-51,0.07,-92,30.24, 0,3969.82, 1,45.06,-109
97725,31.24,-67,0.28,-65,31.85,70,32.20,-32,38.17,21,21.52,18
97830,30.05,661,0.89,-89,0.94,-290,30.24, 0,3965.98,54,101.28,-273
97935,31.79,92,1.81,59,31.93, 6,31.22,-16,2.13,-29,3946.59,-4
98040,31.91, 4,1.67,-31,0.14,-8,31.22,32,3972.20, 1,3986.83,-22
98145,0.21,29,1.10,-5,31.99, 0,31.22, 0,14.09,13,44.63, 2
98250,0.04,14,1.07,-14,31.97,-15,31.22,-32,21.65, 6,67.68, 7
98355,31.96,24,0.89,-30,31.90,27,30.24,-16,18.17, 5,10.12,21
98460,31.61,-30,0.53,-23,0.38,51,30.24,32,3983.29,-10,3982.87,-8
98565,31.71,-14,0.61,32,0.43,-1,30.24, 0,3904.33,-19,30.37,56
98670,31.61,-2,1.03, 1,0.14,-5,30.24, 0,3893.78, 8,133.66,12
98774,31.68,-14,0.73,-22,31.95,-21,32.20,-32,3934.82,10,106.46,-38
98879,31.76, 5,0.85,-97,31.63,-30,32.20,-32,3919.21,-5,66.40, 7
98984,31.49,-9,0.33,33,31.55, 0,32.20,-32,3913.96,13,101.34, 5
99089,31.53, 9,0.72,10,31.40,-18,32.20, 0,3945.49,33,105.61, 9
99194,31.41, 8,0.90,18,31.73,12,30.24, 0,3946.95,-30,48.29,-44
99299,31.31,-19,1.23,10,31.61, 3,30.24, 0,3939.09,12,3988.78,-36
99404,30.99,-2,1.02,28,31.74,-12,32.20,-32,3958.60,13,3894.09, 7
99509,31.06,-2,0.79,20,31.86, 5,30.24, 0,3957.74, 7,3930.85,53
99614,31.56,-2,1.13,-43,31.86,-5,30.24, 0,3961.83,-3,3988.05,30
99724,31.77, 3,0.97,-15,31.64, 6,30.24,32,6.22,12,3985.18,-6
99830,0.02,-13,0.60, 9,31.71,-9,29.27,32,27.26,-9,1.40,-11
99935,31.94,-1,0.84,-4,31.74,10,32.20,-16,28.66, 2,3983.96,-13
100040,31.51,-21,1.04,-6,0.04,-2,30.24,16,29.02,-5,3883.60,-35
100145,31.56,10,1.15, 2,0.27,37,30.24,16,26.34, 8,3983.11,51
100250,31.24,14,0.98,-17,0.10,-23,28.29,16,3987.93,-11,153.72,10
100355,31.45,35,1.42,-9,31.68, 8,30.24,16,3977.87, 4,3985.85,-36
100460,31.69,-9,1.11,14,31.69,10,30.24,32,18.66,15,3983.60,-8
100565,31.81,-3,0.77,-8,31.87, 4,30.24, 0,17.20,-9,3940.61, 9
100670,31.87,-3,0.92,-1,31.97, 1,32.20,-32,11.77,-1,3980.55, 0
100774,31.79, 0,1.04,36,0.07, 3,30.24, 0,3985.67,-1,29.27,17
100879,31.51, 9,1.09,41,0.24, 3,30.24,32,3939.76,-12,15.73,-6
100984,31.56,-13,0.91, 7,0.19,18,30.24,32,3933.35,-1,61.40,34
101089,31.42, 6,0.86,-2,31.96,-8,32.20,-32,3929.94, 4,66.65, 5
101193,31.28,-8,0.69,-13,0.12,-16,30.24, 0,3946.10,-4,42.32,-24
101298,31.42,-10,0.72, 3,0.01,-3,30.24, 0,3975.06, 6,3993.48,26
101403,31.47,-6,0.68,19,31.72,-13,29.27,16,33.96,16,75.00,18
101508,31.45,13,0.65,-23,31.40,-30,29.27,16,75.37, 9,3968.11,-48
101613,0.10, 1,0.45,21,30.79,14,29.27,16,136.59,19,3888.11,66
101718,0.20,53,0.64,-26,31.50,49,31.22,-16,209.02,-7,3834.63,10
101823,1.36,-61,1.28,-129,0.76,63,29.27,-16,240.85, 3,3951.46,200
101928,1.64,22,1.50, 7,31.31,-79,29.27,16,189.70,83,3736.95,-56
102033,29.82,539,1.18,885,30.83,746,29.27, 0,3995.85,-65502,3910.43,-653
102138,31.71,223,0.73,-133,0.40,-401,31.22,-32,3955.85,53,3969.15,166
102242,31.92, 5,0.50,-4,0.77,-35,32.20,-16,3976.95,35,3993.54,-65434
102347,31.45, 8,0.60,-19,0.31,11,32.20,-32,3940.61,-12,3981.59,-22
102452,31.46,-1,0.57,-12,0.50,-42,30.24, 0,3989.27, 7,30.12, 4
102557,31.30,-27,0.57,26,0.38,16,29.27,16,30.73,-4,32.56,-30
102662,31.45,12,0.65,-2,0.43,-1,31.22,-16,7.74, 2,3982.80, 8
102767,31.47,43,0.87,10,0.31,-26,31.22,-16,25.24, 9,21.95, 8
102872,31.67,-9,0.87,24,0.14,30,29.27,32,40.55, 9,45.85,19
102977,31.58,-83,31.87,-51,0.71,-46,29.27, 0,124.94,-6,3993.35,-16
103082,31.39,141,2.30,-218,31.90,-14,29.27, 0,72.01,-56,3938.78,15
103186,31.58,16,0.99, 5,31.84,-34,29.27, 0,15.73,-3,7.20,-9
103290,31.55,-30,0.96,27,31.90,-6,31.22,-64,8.90,-3,3986.46,-6
103395,31.83,-39,0.90,22,31.83,-24,29.27, 0,3974.02,-11,3985.37,27
103500,31.76,-19,0.79,18,31.75,28,31.22,-32,3947.07,-2,39.02,-11
103605,0.10,-12,0.98,57,31.98,-108,29.27, 0,3939.70,-1,3987.07,-13
103710,0.15,21,1.62,23,0.01,65491,29.27, 0,3886.77,-12,3976.89,-5
103815,1.14,136,1.09,68,31.29,-58,31.22, 0,18.54,18,62.32,-24
103920,0.04,114,0.40,-16,0.47,-100,29.27, 0,80.79,22,3891.71,-118
104025,30.84,171,1.10,-5,1.26,-263,29.27, 0,3966.65,-53,29.39,27
104130,0.64,-68,1.02,52,0.04,78,29.27, 0,29.21,-4,38.66,-27
104236,0.31,49,1.17,10,0.07,-26,30.24,-16,7.13, 2,3956.95,25
104341,0.45,-5,1.04, 5,31.80,-6,28.29,16,10.30,-4,39.27,21
104446,31.94,-114,0.94,-1,31.80,-41,28.29,16,22.44,-15,86.52,62
104551,30.59, 0,0.75,-30,0.35,15,30.24, 0,37.44,-5,1.22,45
104656,31.55,28,1.72,11,31.87,-76,30.24,-32,3975.06,21,3960.73,-34
104761,31.91,-22,1.80,25,0.27,-14,30.24, 0,3959.21,-19,3989.02,-25
104866,0.91,-9,1.35,-58,31.98,13,28.29, 0,3967.26,-3,3982.20,178
104971,0.32,-88,0.99,12,0.22,19,30.24, 0,3989.15,-13,161.89,31
105076,31.89,14,1.16,13,0.31,-20,28.29,64,3957.74,-1,5.61,-39
105181,31.85,-19,1.00,-14,0.20,19,28.29,32,3960.24,-11,3966.46,-52
105286,31.77,-14,0.44,-57,0.10, 7,29.27,16,3925.30,-15,3924.70,36
105391,31.75, 9,0.29,-25,31.86,-34,29.27,16,3904.63,28,152.26,10
105496,31.33,-23,31.86,50,0.06,14,29.27, 0,40.55, 2,220.73,-93
105601,30.70,-34,0.29,-5,31.93,24,29.27, 0,68.84,-2,96.77,-44
105706,30.81,10,31.91,-4,31.77,-3,29.27, 0,96.46, 2,118.72,-9
105811,31.28,40,31.71,-15,31.64,-12,28.29,16,90.73,-8,117.38,-78
105916,31.30,21,31.29,-21,31.78,25,28.29, 0,3988.48,-25,3932.32,-37
106021,31.34,-24,31.21,15,31.85,-21,30.24, 0,3947.62, 7,3891.40,12
106126,31.70,-4,31.40,-20,31.69,-29,28.29, 0,3905.49, 0,3987.74,109
106231,31.45, 8,31.10, 2,31.67, 6,29.27, 0,3960.18,20,3820.55,-52
106336,31.79,-14,31.33,22,31.68, 9,29.27, 0,82.50,11,48.96,85
106441,31.48,35,31.63, 6,0.16,-3,30.24,16,3894.70,-50,3899.82, 5
106545,31.70,16,31.76, 8,31.92, 6,30.24,-16,3790.67,21,3883.11,116
106650,31.28,13,0.40,23,31.66,-22,28.29,16,3821.89,28,110.12,81
106754,31.26,-5,2.35, 9,31.36,-17,28.29,16,3682.62,10,106.77,-175
106859,31.31,-34,1.17,25,0.02,-14,28.29,32,3942.62,-20,124.82,22
106964,31.20,26,1.01,17,31.60,13,26.34,32,3922.62,42,19.63,16
107069,31.36,13,0.93,-5,31.67,-13,30.24,-32,3979.51, 7,18.66,-40
107174,31.63, 1,0.93, 5,31.69,20,28.29, 0,33.17, 5,3989.27,-19
107279,31.73,-2,0.91,15,31.64,18,29.27,-48,50.12,14,3919.63, 1
107383,31.81,-15,0.80,-4,31.93,-9,28.29,32,55.61,-15,3907.93,-7
107487,31.68, 7,0.70, 9,0.00, 6,28.29, 0,40.43,-5,3882.62,-15
107592,31.28,12,0.73,-24,0.38, 4,28.29, 0,10.00,-24,3856.77,-32
107697,31.48,-2,0.70,-10,0.24, 7,30.24, 0,3982.32, 1,3973.84,53
107801,31.18,-6,0.58, 8,0.12,-33,30.24,-16,3968.23,-4,19.82,-15
107906,31.16,11,0.03,-10,31.07,-21,28.29,32,3977.32,12,3977.74,-87
108011,31.98,23,0.07,15,30.94,10,30.24,-32,84.82,42,3903.90,71
108119,0.27,19,1.14,124,0.65,-12,27.32, 0,191.28,-25,3865.79,18
108225,0.94,-15,1.02,83,0.37,-19,29.27,-16,122.38,-22,3922.32,-183
108330,0.87,754,4.79,-1452,1.87,-694,27.32,16,5.30,65240,106.22,76
108435,31.23,-57,1.04,-129,0.15,-21,29.27,-16,3938.41,-93,3955.67,-74
108539,31.08,-76,0.23, 7,1.01,-35,27.32,48,3948.60,59,3881.65,21
108644,31.52,20,0.49,-18,0.64, 7,29.27,-16,3910.85,-11,3943.29,-2
108748,31.55, 2,0.36,-18,0.74,-19,31.22,-48,0.73,20,26.95,19
108853,31.54,-5,0.31, 1,0.60, 2,29.27,-16,3995.43,-5,45.73,10
108958,31.38,-18,0.34, 7,0.61,27,29.27, 0,5.18,-4,3994.70, 1
109063,31.42,-11,0.34, 9,0.63, 5,30.24,-16,3993.11, 5,3984.27, 8
109168,31.55, 3,0.36, 5,0.60,-32,28.29, 0,46.89,21,52.93,12
109273,31.65,49,0.96,162,0.27,-47,28.29,32,128.54,37,3995.37,-65409
109378,30.85,-48,31.09,89,0.46,-218,28.29, 0,89.70,25,62.93,97
109483,31.65,-13,0.61,23,0.15,-22,31.22,-48,73.05, 8,3940.67,28
109587,31.56,-13,0.88,-21,31.97,-32,29.27,-16,44.94,-23,3982.26,31
109692,31.56,49,0.88,-7,0.06, 3,29.27,-32,30.73,-11,3982.62,-16
109796,31.75,26,1.00,-9,31.97,-7,29.27,-32,11.89,-20,3981.65,22
109901,31.87, 5,1.17, 6,31.93,65,29.27, 0,3946.16,-27,3989.21,11
110006,0.30,17,0.94,-100,0.31,-5,29.27, 0,3909.33, 8,3932.07,-48
110111,0.45,-12,1.33, 1,0.10,59,28.29,16,3960.18,13,96.10,71
110215,0.52,-140,1.08,-48,31.85,-58,28.29,16,42.68,-11,123.78,66
110320,31.84,48,0.04,49,0.50,-5,30.24,-32,33.11,-41,3949.21,-55
110425,0.25, 8,1.18,-28,0.04,-27,28.29, 0,44.45, 8,3965.30,-21
110530,31.69,-57,1.31,37,0.79, 9,28.29, 0,41.46,-38,114.21,33
110635,0.58,39,0.87, 1,31.79,-10,29.27,-16,0.98, 2,17.68,64
110740,0.30,10,0.75,24,31.75,-2,29.27, 0,12.68,-2,87.20,-11
110844,31.70,-60,1.14,-34,31.61,-61,29.27,-32,26.10,25,155.91, 7
