Time(ms),Teste,AccX(g),ΔAccX,AccY(g),ΔAccY,AccZ(g),ΔAccZ,GyrX(d/s),ΔGyrX,GyrY(d/s),ΔGyrY,GyrZ(d/s),ΔGyrZ
85954,1,31.68,-6,31.37,16,0.61,12,3908.29, 0,1.46, 8,3995.98, 1
86259,1,31.67, 1,31.42,13,0.61, 0,3905.37,16,7.68,-11,5.37, 4
86364,1,31.65,-1,31.43,14,0.61,15,3906.34,32,10.61,-8,14.02, 2
86469,1,31.61, 0,31.45,-20,0.60,23,3907.32,16,0.00,65533,12.32,-1
86574,1,31.57,-19,31.45, 5,0.58,56,3904.39, 0,12.93,19,21.40,-4
86679,1,31.55,19,31.56, 5,0.67, 6,3909.27,-16,44.51, 9,11.83,-11
86784,1,31.48,-6,31.46,23,0.65, 8,3908.29, 0,3985.12,30,3986.77, 6
86889,1,31.50, 2,31.57, 6,0.63,-6,3906.34, 0,3992.80,-2,3990.24,-10
86994,1,31.52,10,31.58,-6,0.64, 4,3906.34, 0,3990.98,-1,3982.32,-2
87099,1,31.56, 0,31.57, 0,0.65, 7,3906.34,32,3991.95, 4,3987.26, 2
87204,1,31.55,11,31.56, 3,0.64,26,3906.34, 0,3993.90,-3,3991.95, 3
87309,1,31.55,-24,31.53,13,0.63,19,3906.34,-16,0.73, 3,3995.49,-5
87414,1,31.55, 7,31.53, 6,0.64,-9,3905.37, 0,2.62, 0,3993.60, 3
87519,1,31.56, 5,31.56, 7,0.65, 9,3905.37,32,2.13,-6,0.37, 4
87624,1,31.56,-10,31.55, 5,0.65,-25,3907.32, 0,0.37,-1,0.55, 2
87729,1,31.56, 1,31.57, 5,0.64, 0,3905.37,-16,0.24,65530,2.62,-2
87834,1,31.56,-13,31.57,-7,0.65,-19,3905.37,32,3993.78,-6,0.00, 3
87939,1,31.56,-9,31.54,-4,0.65,-1,3907.32,-16,3990.37, 3,3993.17, 2
88044,1,31.55,-2,31.53, 5,0.63,20,3907.32, 0,3987.20, 0,3988.72, 1
88149,1,31.58,-3,31.53,-2,0.64,-8,3907.32,-16,2.87, 4,0.06,65530
88254,1,31.29,-38,31.47,121,0.39,-43,3907.32,-16,3857.68,-104,3991.95,-3
88359,1,31.68,-8,31.42,-13,0.32,24,3907.32,16,3967.87,-35,23.90,20
88464,1,31.72,15,31.38,-41,0.19,-4,3906.34,-32,3956.10,-26,96.34,15
88569,1,31.70, 3,31.57, 3,0.28,-8,3906.34, 0,11.46,17,135.55,22
88674,1,31.48,188,31.67,-123,0.22,-83,3905.37,48,115.85,-29,155.43,20
88779,1,31.20,-4,31.42, 6,0.17,-23,3905.37,-16,3937.20,-16,142.38,-23
88883,1,30.90,-42,31.58,53,31.64,30,3906.34, 0,60.85,15,135.18,-3
88988,1,30.75,21,31.83,43,31.90,-7,3908.29,-32,137.99,-96,45.18, 0
89092,1,31.07,-10,31.93,-35,31.53, 7,3906.34,32,19.82,-91,27.56,-13
89197,1,31.06, 9,31.61,-2,31.56,20,3906.34,-32,3921.95,103,3978.41,17
89302,1,31.00,63,31.68,110,31.49,-38,3906.34, 0,30.00,17,29.45,11
89407,1,31.10,-12,31.70,-5,31.44,21,3904.39,32,35.12,12,16.10,-10
89512,1,31.17,-10,31.68,-17,31.43,-18,3906.34,-16,24.63, 4,3991.34, 6
89617,1,31.27,10,31.80,14,31.47,-15,3906.34,16,33.84,-72,9.57,20
89721,1,31.22,-1,31.31,-23,31.60,-3,3905.37, 0,82.44,92,3968.78,-11
89826,1,31.47,-1,31.81,-23,31.73, 6,3905.37, 0,3978.35,-118,3940.67, 8
89931,1,31.42,-1,30.99,-27,31.62,-13,3907.32, 0,3663.54,162,3960.55,39
90036,1,31.14,17,31.70,38,31.20,10,3907.32, 0,3898.35,53,34.82,10
90141,1,31.07,32,31.96, 8,31.28,-21,3907.32, 0,3880.55,-16,48.84, 9
90246,1,31.12,-52,0.09,-13,31.06, 6,3906.34, 0,3932.26,47,54.51,13
90350,1,31.01, 8,31.84,24,31.11,-63,3905.37,-16,192.07,-70,36.65,42
90455,1,31.14, 4,31.62,-45,31.21,-46,3906.34, 0,174.33,-16,34.45, 8
90560,1,31.39,17,31.20,-6,31.26,-13,3906.34,-32,114.27,28,12.62,-20
90665,1,31.68, 5,31.35,43,31.41,15,3906.34,-32,107.62,-39,3.84,21
90769,1,31.81,-19,31.42,-24,31.59, 7,3906.34,-16,45.18,-25,3976.40,-13
90874,1,31.78,-11,31.13,23,31.73, 6,3907.32,-32,101.10,-20,3953.11,10
90979,1,31.85,-11,30.98,33,31.63,16,3907.32,-32,22.56, 5,3982.99,-11
91084,1,31.69, 0,31.20,-18,31.73,21,3905.37,32,2.62,-6,3967.74,-6
91189,1,31.77, 3,31.04,-9,31.76,-11,3905.37,-16,3987.68,-11,3971.71, 3
91294,1,31.81, 4,31.08,-7,31.82,24,3905.37,16,3992.74,-32,3988.48,-1
91399,1,31.83,-2,31.08,29,31.78, 0,3907.32,-48,3968.66,-5,3983.11, 6
91504,1,31.81,-15,31.12,10,31.75,14,3907.32,-16,3971.95,-1,3972.68, 0
91609,1,31.83,-8,31.10,-2,31.74, 2,3904.39,32,3968.05,-11,3967.50, 7
91714,1,31.85,-9,31.01,-16,31.96,39,3906.34,16,16.77,40,3968.29,-12
91819,1,31.79,-7,31.08,-11,31.87,-8,3906.34,-16,45.85,25,3868.54,-47
91924,1,31.86,-4,31.77,-8,31.71,45,3907.32,-32,3957.32,-90,3926.95,14
92029,1,31.58,-33,31.36,-35,31.18,-10,3905.37, 0,3881.46,-107,3987.26,54
92134,1,30.46,-59,31.42,-12,31.74,107,3907.32, 0,270.18,-159,129.76,-41
92239,1,30.85, 9,31.83,29,0.12,-21,3905.37, 0,42.74,-56,48.35,26
92343,1,30.89, 8,31.66,18,0.03,-59,3905.37,16,79.15,-16,14.76,11
92448,1,30.74,-25,30.96, 2,31.82,24,3906.34, 0,3947.38, 9,3988.23, 2
92553,1,31.25,35,31.76,37,31.79,25,3905.37,16,3929.09,-83,23.41,-5
92658,1,0.14,-29,31.55,-1,31.39,-7,3906.34, 0,138.72,100,3966.52,12
92762,1,31.97,-39,30.32,-44,31.45,39,3906.34,32,3969.21,64,30.98,14
92867,1,31.98,18,30.57,-57,31.94,-25,3906.34,-32,3857.50,105,3970.61,32
92972,1,31.75,-19,31.08,-88,31.02,-2,3906.34,16,3866.52,-36,161.95,48
93077,1,31.37,-20,30.83,-4,31.75,59,3906.34,16,3963.96,17,166.04,-60
93182,1,31.78,-18,31.12,-47,31.61,-29,3904.39,16,3949.45,-8,3879.76,-46
93287,1,31.81,-37,31.74,-59,31.05,47,3906.34,-16,3871.95,-98,3812.26,-18
93392,1,0.18,-5,31.12,-19,30.96,21,3906.34,16,3887.32,103,3857.50,13
93497,1,0.07,15,31.28,-32,30.98,70,3906.34,-16,212.74,-37,51.65,12
93602,1,31.84, 2,31.06,174,31.61,38,3904.39,48,251.04,149,35.00, 7
93707,1,31.45,-34,30.99, 2,31.76,-44,3906.34,16,3968.78,95,3992.01,-6
93812,1,31.54,15,30.90,51,31.83,77,3908.29,-16,120.43,22,3975.18, 3
93917,1,0.02,25,31.23,17,0.02, 0,3906.34,-16,85.12,-82,3977.93, 7
94022,1,0.02,-6,31.01,45,0.14,-33,3904.39,32,3901.89,-91,3932.38,-1
94127,1,0.00,65526,31.25,17,31.85,-33,3906.34,-32,210.30,65,3963.41,43
94231,1,31.51,63,30.60,-123,31.87,-284,3904.39,32,37.93,160,98.66,104
94337,1,31.52,-2,30.98,-7,31.98,20,3906.34, 0,3970.85,-19,75.91,-6
94442,1,31.53,-23,31.11,-100,0.19,10,3904.39,32,3964.63,-32,56.10,-25
94547,1,31.67,-20,30.93,46,31.94,40,3906.34,-32,113.72,65,62.20,-1
94652,1,31.70,-15,31.09,36,0.21,51,3907.32,-48,67.80,-6,50.91,-7
94757,1,31.44,22,31.29,37,0.43,-7,3906.34,-32,112.50,-7,5.30,-21
94861,1,31.57,17,31.30,39,0.42,-4,3903.41,48,53.29,53,3988.66, 7
94966,1,31.49,-8,31.35,24,0.56,-14,3903.41,32,25.55,-20,17.68,-12
95071,1,31.38,17,31.47,37,0.28, 8,3905.37, 0,3785.67,-44,3990.18,-25
95176,1,31.47,-4,30.87,13,0.06, 1,3907.32,-32,3864.02,24,3951.83, 7
95281,1,31.57,14,31.10,-18,0.06,14,3907.32,-32,3968.35, 8,3972.20, 0
95385,1,31.60,-12,31.20,-62,0.11,-63,3906.34,32,73.23,54,16.59,13
95490,1,31.52, 7,31.01,-15,0.23,35,3904.39,32,0.61,51,26.04, 1
95595,1,31.47,-10,31.47,-4,0.14,27,3906.34, 0,25.37,-105,29.94,-17
95700,1,31.48,20,31.40,-104,31.94,-104,3904.39,32,3739.70,-132,16.95,14
95805,1,31.42,-3,31.25,-14,31.50,-39,3906.34,-16,3795.55,49,31.65,12
95910,1,31.40,21,31.27,81,31.39, 1,3905.37, 0,3974.02,26,28.90, 6
96015,1,31.27,-1,31.31,-1,31.50,-1,3905.37,32,137.68,-31,2.87,-9
96120,1,31.39,-38,31.25,-3,31.75,-15,3907.32,-16,176.83,-29,3979.09,-22
96225,1,31.50,-1,31.69,50,31.78, 1,3906.34, 0,42.99,-113,15.67,14
96330,1,31.32,-14,31.01,-14,31.93,-15,3906.34, 0,3843.78,81,3952.38, 6
96435,1,31.46,52,31.11,-4,31.83,-278,3907.32, 0,51.89,97,3977.80,68
96540,1,31.39,-7,31.32, 5,31.84,-16,3905.37, 0,22.99, 3,7.68, 3
96645,1,31.40,-49,31.36,42,31.74,123,3905.37,16,15.43,-62,33.41,-32
96750,1,31.28,-1,31.32,27,31.70,-25,3906.34, 0,3926.65,-33,3.11, 4
96855,1,31.37,-47,31.39,-60,31.76,35,3906.34, 0,3959.27,-40,15.55,-28
96960,1,31.39,21,31.11,-20,31.56,63,3906.34,-32,57.87,71,22.87,-11
97065,1,31.42,-5,31.29,-24,31.70,-34,3904.39,-16,42.07,-38,4.15, 4
97170,1,31.41, 1,31.37,-4,31.83,11,3905.37, 0,56.59,-63,30.91,-9
97274,1,31.30,11,31.25, 2,31.91, 1,3905.37,16,3936.83,-37,3981.46,-12
97379,1,31.49,-29,31.04,-42,31.62,45,3907.32,-16,55.55,39,15.00,19
97483,1,31.50,-8,30.95,14,31.93,-16,3904.39,32,81.46,56,32.20,16
97588,1,31.41,-5,31.25,-17,31.93,11,3906.34,-16,51.89,-40,37.80, 8
97693,1,31.36,-6,31.48,11,31.87,11,3906.34,-16,3915.06,-57,28.05,-12
97798,1,31.30,17,31.17,24,31.53,-11,3905.37, 0,161.89,-29,29.39,22
97903,1,31.45,-1,31.41,40,31.85,-45,3907.32,-32,81.52,-52,68.60,28
98008,1,31.06,-12,31.02,-30,31.99, 0,3905.37,16,75.61,80,36.16,-31
98113,1,30.87,23,31.64,134,31.93,-31,3906.34, 0,81.59,-72,3948.41,30
98218,1,30.92,41,31.72,-7,0.21,-32,3904.39,64,3895.06, 8,3793.54, 9
98322,1,31.61,20,31.44,-43,0.15, 1,3904.39,16,3911.71,61,3902.26,38
98427,1,31.67,-16,31.30, 2,31.99, 2,3905.37,-32,7.80,38,3.48,17
98531,1,31.51, 4,31.69, 7,31.94,-32,3905.37, 0,3939.02,-50,41.34,21
98636,1,30.94,-34,31.33,-10,31.92,31,3907.32,-48,3920.61,49,66.52, 5
98740,1,31.03,27,31.32,24,31.99,-6,3906.34, 0,184.21,51,70.85,-5
98845,1,30.86,-7,31.89,-3,31.68,15,3904.39, 0,27.93,-97,2.13,-5
98950,1,30.95,-5,31.79,-7,31.83, 4,3904.39,16,3873.90,13,0.24,65531
99055,1,31.19, 6,31.92,-5,31.89,-19,3907.32, 0,3991.16,11,3981.46, 7
99160,1,31.26,-16,31.64,-18,31.88, 3,3905.37,16,3977.13, 9,9.94,-1
99270,1,31.03, 9,31.44,39,31.87, 3,3905.37, 0,77.62, 0,15.24, 4
99376,1,31.02,-2,31.44,14,31.92, 8,3903.41,16,19.02,24,15.30,-5
99481,1,30.86,24,31.51, 9,31.91, 6,3906.34, 0,41.59,-31,3990.61, 0
99586,1,30.86, 3,31.52, 4,31.88,-9,3906.34, 0,0.18,10,3993.23, 6
99691,1,30.97, 0,31.40,-7,31.81, 1,3904.39, 0,37.20,-6,10.00, 1
99796,1,30.99,15,31.21, 7,31.79,20,3906.34,-16,46.40,-18,9.82,-1
99901,1,31.17,27,31.18,-1,31.71,-15,3905.37, 0,3960.37,-3,21.77,10
100006,1,31.57,10,31.19,-13,31.43,-21,3905.37,-16,3718.41, 9,100.98,30
100111,1,31.79,18,31.49,18,31.21,-16,3905.37,16,3920.85, 2,177.80,16
100216,1,0.19,15,31.21,52,31.50,-47,3906.34,-32,3988.17,47,95.24,-7
100321,1,0.39, 0,31.37,-36,31.32,-25,3904.39, 0,3921.83,32,63.60, 7
100426,1,0.45,-18,31.34,-5,31.19,15,3906.34,-48,53.54,-16,67.20, 1
100531,1,0.52,-21,31.45,-6,31.36, 3,3905.37,-32,30.12,-45,53.48, 7
100636,1,0.46, 1,31.36,-12,31.43, 1,3904.39, 0,3992.07, 3,37.87,-15
100740,1,0.54,-6,31.41, 4,31.53,41,3906.34,-32,17.20, 2,20.49,-9
100845,1,0.62,-12,31.28, 3,31.51,-3,3904.39,48,17.38, 8,8.66,-8
100950,1,0.63,-5,31.30, 0,31.47, 1,3903.41,16,14.94,-8,3993.54, 4
101055,1,0.64,-8,31.33,-1,31.55,-10,3903.41,16,11.71,-7,3.29,-1
101160,1,0.65, 9,31.35,13,31.51,21,3904.39, 0,3986.77,-9,2.56, 0
101265,1,0.67,-10,31.32,-4,31.50,21,3906.34,-48,3976.34,16,2.20,-3
101370,1,0.62, 6,31.29, 5,31.54,-12,3905.37,-32,22.50, 8,3992.13, 3
101475,1,0.67, 6,31.31,11,31.50,-1,3905.37,-32,11.83,-5,3993.48, 1
101580,1,0.70, 6,31.30,13,31.55,-2,3904.39, 0,5.79,-4,8.54, 2
101685,1,0.72,-1,31.29, 1,31.62, 7,3904.39, 0,27.50,16,15.12, 1
101790,1,0.70, 1,31.23,17,31.70, 9,3904.39,-16,98.96, 0,3.78, 1
101895,1,0.74,-3,31.28,16,31.77, 5,3905.37, 0,88.41,-25,8.84, 5
102000,1,0.75, 9,31.34,18,31.84, 8,3905.37,32,3991.71,10,21.71,-12
102105,1,0.75,15,31.35,-15,31.78,-2,3905.37,-16,11.28, 8,7.87,-1
102209,1,0.81,13,31.25,24,31.93,28,3904.39, 0,63.17,55,1.89,-5
102314,1,0.89,-25,31.42, 8,0.12,58,3906.34,-16,87.50, 9,3979.94,-13
102419,1,0.80,-7,31.31, 6,0.05,44,3905.37, 0,38.41,35,3991.65,-1
102524,1,0.80,-8,31.24,-95,31.77,40,3903.41, 0,10.61,-54,3995.98,-25
102629,1,0.83, 0,31.29,-25,0.05,21,3905.37,-32,3906.10,37,3.60,-11
102734,1,0.70,-23,31.43,-2,0.08,-2,3904.39, 0,3958.29,-5,3992.99,-2
102838,1,0.76, 3,31.51,-27,31.81,-168,3904.39, 0,1.59,45,3986.52,51
102943,1,0.82,-16,31.18,22,31.94,-15,3904.39,32,3962.93,-5,3989.21,-7
103048,1,0.67,-46,30.98,24,31.80,108,3904.39,32,3925.12,23,9.45,-10
103153,1,0.51,-4,31.12,-13,31.73,-13,3904.39,16,3930.73, 4,3986.59, 4
103258,1,0.52, 1,30.96,-17,31.76,-8,3906.34,-16,3941.46,13,3994.88, 2
103363,1,0.33,-18,31.05,-22,31.83,-2,3905.37, 0,3981.22,48,3965.73,-14
103468,1,0.28,23,31.27,43,31.55,24,3905.37,16,102.80,-41,3944.82,-16
103573,1,0.60, 9,31.70,-44,30.95,-31,3906.34,-32,3865.12,-23,46.28,32
103678,1,0.68,-7,30.94, 7,31.41,23,3904.39,32,3915.73,16,78.29,-1
103782,1,0.54, 1,30.74,-14,31.76,-16,3906.34,-48,3976.77,69,72.20,-18
103887,1,0.23,-15,31.05,22,31.70,12,3903.41,32,375.24,21,3926.46,-12
103992,1,0.50,25,31.19,-58,31.72,-69,3905.37,-16,115.91,12,3966.04,31
104097,1,0.44,-6,30.82,-125,31.61,-37,3904.39, 0,3958.41,22,82.20,22
104202,1,0.30,14,31.03,-22,31.87,45,3904.39, 0,3731.40,-86,48.66,-37
104307,1,0.24,22,31.09,-21,31.73,-74,3904.39,-16,3898.48,26,3920.73,-5
104412,1,0.47,-56,30.73,14,31.21,-8,3905.37,-32,120.30,44,3936.95,71
104517,1,0.49, 6,31.32,17,31.40,-66,3907.32,-32,3915.37,-13,3991.46,31
104622,1,0.47,-3,31.13,-17,31.42,29,3905.37,-16,3859.45, 0,65.61,-24
104727,1,0.58, 7,31.20, 3,31.30,21,3905.37, 0,3934.27,-14,30.18, 2
104832,1,0.38,17,31.19,28,31.45, 2,3905.37,16,22.87,61,2.80,-16
104937,1,0.53,-1,31.34,83,31.46, 1,3904.39, 0,135.55, 5,10.85,-10
105041,1,0.69, 4,31.16,10,31.43,-11,3906.34, 0,191.52,10,31.59, 9
105146,1,0.47,-5,31.41,-19,31.58,-22,3904.39,16,67.13,-100,60.30, 7
105250,1,0.45, 0,31.07,-6,31.69,14,3905.37,32,3942.56,-31,150.91, 8
105355,1,0.25,-15,31.07,-37,31.56, 5,3903.41, 0,3902.99,-24,219.15, 8
105460,1,0.02,-5,30.91, 4,31.60, 7,3903.41,32,3886.71,12,210.49,-10
105565,1,0.12,11,31.15,-11,31.57,-14,3904.39, 0,3932.26,-31,191.40, 8
105670,1,0.09,-7,30.72,49,31.50,-31,3904.39, 0,3802.80,52,136.71,-3
105775,1,0.27,-21,31.19,15,31.02,-23,3904.39,32,3947.62,79,171.16,13
105880,1,0.08,11,31.15,27,31.39,-13,3904.39,16,108.41,12,159.94,-13
105985,1,0.11,-14,31.27,-7,31.69,-12,3905.37, 0,3960.24,-69,96.95,-27
106089,1,0.14, 7,31.03,19,31.44, 6,3905.37,-32,3855.06,-16,49.02,-7
106194,1,0.27,-10,31.04,-9,31.21,-10,3905.37,-16,3939.09,36,30.91,-1
106299,1,0.32,-12,31.33,-28,31.39, 4,3905.37,-48,2.20,65498,48.54,-9
106404,1,0.07,12,30.98,-6,31.66,-15,3904.39, 0,3978.54,-9,31.46,-28
106509,1,0.16,19,31.08,-4,31.82,-2,3904.39,-32,50.00,20,3984.33,-43
106614,1,0.22, 1,31.11, 0,31.54,12,3904.39,-16,36.52,13,3980.73, 0
106718,1,0.28,-26,30.87,-48,31.35,-53,3905.37, 0,3930.37,-2,3947.80,11
106823,1,0.22,-10,30.95,-8,31.45,-19,3904.39, 0,3965.49,22,3964.45, 3
106928,1,0.18,-7,31.21, 4,31.40,12,3904.39,-32,106.77,-43,3987.56, 5
107033,1,0.28, 3,31.02,-32,31.52,35,3906.34,-32,147.56,-26,9.82,10
107138,1,0.26,-1,31.01,-17,0.08,34,3904.39,-16,127.38,-22,3995.73,-2
107243,1,0.04,53,31.07,-28,0.31,64866,3903.41,32,185.98,93,3990.18,-65383
107348,1,0.19,-57,30.99,37,0.23,36,3903.41,16,365.12,-34,61.28,10
107453,1,0.06,-3,31.51,11,0.58,52,3905.37,-48,58.66,-1,42.99, 5
107558,1,0.10,29,31.91, 1,0.54,-5,3902.44,32,3937.62,-111,29.94, 3
107666,1,31.93,-3,31.13,11,0.17,12,3904.39, 0,3756.71,88,46.83, 7
107772,1,31.73,-10,30.79,44,0.12,-22,3904.39,-16,3841.34,-51,116.22,-8
107877,1,31.46,-8,30.88,-46,31.05,-2,3904.39,16,3582.87,126,57.07,-7
107982,1,31.46,27,31.34,12,31.09,-2,3905.37, 0,3978.11,113,4.39,-1
108087,1,31.42,-21,31.15,89,31.24, 4,3905.37, 0,74.39,103,3987.80,-12
108192,1,31.48,14,31.41, 1,31.25,-30,3904.39, 0,8.48,-12,0.43, 2
108296,1,31.30,-2,31.37,12,31.20,-26,3904.39,-32,46.83,46,3992.93,-3
108401,1,31.42,-6,31.55,-27,31.50,23,3902.44,32,138.96,15,0.00,65533
108506,1,31.62,14,31.13, 4,31.51,-2,3904.39, 0,114.57,19,46.04,19
108611,1,31.79,-3,31.13,-5,31.58, 5,3904.39,-32,172.62,-14,103.72,-3
108715,1,31.58,-2,31.09,36,31.54,10,3906.34,-16,152.93, 4,67.80,-6
108820,1,31.43, 5,31.24,-2,31.74,-20,3904.39,-16,84.63,-49,68.48, 7
108925,1,31.25,-21,31.13,-15,31.87, 7,3903.41, 0,55.98, 8,70.06,-2
109030,1,31.33,18,31.30,26,31.81,22,3903.41,32,5.85,-45,53.60, 3
109135,1,31.53,-2,31.28,-2,31.81,-9,3905.37,-16,3956.28,12,60.06,-7
109240,1,31.56,-5,31.22,-7,31.74,-11,3901.46,16,3985.18,11,35.49,-11
109345,1,31.52,-5,31.09,-22,31.66, 7,3904.39,-32,3955.79,-8,3.17,-2
109450,1,31.31,-8,31.20,-24,31.67, 7,3904.39, 0,76.83,-8,3979.70,-7
109555,1,31.41,-14,31.50, 9,31.82,-3,3902.44,-16,37.20,-35,3978.35,-2
109660,1,31.08,-12,31.54,11,31.70, 8,3903.41, 0,3912.26,-13,3949.82,-19
109764,1,30.82,29,31.66,-6,31.66,-51,3902.44,32,3862.38,-44,3894.88,-10
109869,1,30.85,-5,31.62,-21,31.56,-22,3904.39,-32,3788.23,-2,3882.32, 6
109974,1,31.13,-1,31.53,-3,31.89, 0,3904.39, 0,3876.16,51,3930.12,14
110079,1,31.14,14,31.79,29,0.01,-12,3904.39,-16,3972.68,-29,3941.16,-22
110183,1,31.22,-2,31.63,-35,0.08,35,3903.41,32,3837.32,13,3915.79,-3
110288,1,31.11,-3,31.37,11,0.03,-5,3901.46,48,3905.18, 1,3925.00,11
110392,1,31.34,14,31.26,-41,31.85, 4,3902.44,32,3967.56,38,3934.70, 8
110497,1,31.62,14,31.46, 5,31.88,-17,3902.44,32,3831.89,-141,3962.74,28
110602,1,31.94, 8,31.38,-44,31.23,-37,3904.39,-16,3408.48, 2,52.32,43
110707,1,31.52, 2,31.29,13,31.01,-8,3901.46,32,3914.09,136,12.62,-7
110812,1,31.36,16,31.75,-7,30.73,-7,3905.37,-16,49.39,25,46.83,17
110917,1,31.64,14,31.62,13,30.55,-15,3904.39, 0,40.79,-23,136.65,40
111022,1,0.02,28,31.60,14,30.53,11,3904.39, 0,58.72,13,265.12,29
111127,1,0.32,31,31.61,-27,31.11,-34,3904.39, 0,73.54,-64,293.17, 0
111231,1,0.52,-15,31.60,45,31.48,37,3904.39,-48,3993.72,-18,216.34,-17
111336,1,0.64, 8,31.62,-5,31.67,-1,3903.41, 0,3918.84, 3,113.23,-32
111441,1,0.82, 0,31.81,-23,31.78,-4,3903.41,16,3905.12,-18,57.93,-5
111546,1,0.73,-8,31.41,-7,31.92,-36,3903.41, 0,3952.80,32,28.17,-20
111651,1,1.01,14,31.63,-26,31.77,16,3903.41,-16,3974.94, 7,3987.62, 2
111756,1,0.93,35,31.60,-32,31.59,30,3902.44, 0,3978.90,21,3994.51, 5
111860,1,0.95,-28,31.28,-19,0.02,11,3904.39, 0,3982.20,58,3985.91,-21
111965,1,0.58,-8,31.84,15,31.54,19,3902.44,16,74.27,24,3933.72,-16
112070,1,0.70,-8,31.91,-16,31.62,-15,3902.44,-16,55.18,-30,3895.00,-6
112175,1,0.56, 7,31.65,-28,31.48, 5,3903.41, 0,3985.79,-2,3849.33,-21
112280,1,0.41,-15,31.22,-5,31.09, 6,3903.41, 0,3947.80,-2,3870.43,-3
112384,1,0.15,-22,31.21, 7,31.11,52,3904.39, 0,3984.39,19,3879.88, 5
112489,1,0.07,-8,31.13, 8,31.43,10,3906.34,-48,19.94, 4,3911.59,11
112594,1,31.67, 0,30.82,20,31.40,24,3903.41,-32,68.05,-35,3938.05,14
112699,1,31.78,-17,31.08,-7,31.44, 4,3903.41,-32,19.09,-34,3988.48,19
112803,1,31.50, 2,31.02,-1,31.48,12,3904.39, 0,22.99,-43,3993.41,-23
112908,1,31.85,-36,31.08,-69,31.54, 6,3902.44, 0,3887.01,94,3951.40,-23
113013,1,31.48,-5,31.28,-66,31.37,-49,3904.39,-16,3967.38,-39,3961.16,-20
113118,1,31.41,20,31.27,-18,31.42, 7,3905.37,-64,36.71,-31,0.30,13
113222,1,31.43,-9,31.33,-4,31.54, 7,3904.39,-16,7.44,-32,5.00, 1
113327,1,31.56,11,31.20,-17,31.51,-20,3902.44, 0,3992.99,-5,3989.51, 3
113432,1,31.56, 8,31.17,-12,31.41, 8,3902.44,32,3961.65,-25,3989.33, 1
113537,1,31.71,23,31.29, 5,31.28,-28,3904.39,-16,3843.11,-81,13.35, 2
113642,1,31.62, 3,31.38,54,31.18,-5,3903.41, 0,3871.16,55,6.89, 1
113747,1,31.61,-2,31.52, 5,31.12,-17,3903.41,16,3983.96,18,3.17,-4
113851,1,31.53,-32,31.48, 3,31.16,-53,3902.44, 0,3966.71,-19,3984.33, 5
113956,1,31.68,-3,31.54,-19,31.03, 0,3904.39,-32,3978.78,37,3995.85,-1
114061,1,31.68, 8,31.53,10,31.07,16,3904.39, 0,3980.98,-15,1.28,-2
114166,1,31.66, 5,31.59, 7,31.04,-17,3902.44,48,3958.66,22,2.44,-2
114271,1,31.69,-16,31.65,68,30.99,46,3903.41, 0,3975.91,-35,3.48,-5
114376,1,31.65,-7,31.60, 0,31.03,24,3901.46,32,4.51,28,0.00,65535
114480,1,31.58,-25,31.57,19,31.10,11,3903.41,-16,29.02, 1,3984.33, 3
114585,1,31.49, 5,31.70, 7,31.03,10,3902.44,32,22.20,-15,3982.20,-5
114690,1,31.74,22,31.62,20,31.04,-3,3902.44, 0,17.87,14,1.34, 0
114795,1,31.63,-5,31.61, 8,31.06,13,3904.39,16,28.96,-24,3.41,-7
114900,1,31.61,11,31.50,-19,31.10,-47,3903.41, 0,17.01,10,3990.18, 6
115005,1,31.67,-27,31.52,-17,31.09, 2,3901.46,32,2.01,-6,5.06,-9
115110,1,31.62,-9,31.46,-19,31.10, 6,3905.37,-16,3983.11,20,5.12, 1
115215,1,31.59,46,31.46,-14,31.19,-42,3904.39, 0,3983.60,35,3978.35, 4
115319,1,31.60,-10,31.50,-24,31.01,-42,3904.39, 0,3977.93,-29,3991.46,20
115424,1,31.46,-23,31.56,30,31.21,24,3904.39,-16,3976.71,20,6.71,-5
115528,1,31.54, 0,31.56,11,31.22,-21,3905.37,-32,22.07,-4,3993.54,-5
115633,1,31.47,11,31.53,-24,31.14,31,3905.37, 0,11.16,15,3976.83,-5
115738,1,31.57,-32,31.37,-10,31.07,-2,3903.41,32,24.63,25,3964.57,35
115843,1,31.28,-1,31.60,12,31.19, 7,3903.41,16,3964.94,-1,3957.99,-11
115948,1,31.24,10,31.55,23,31.22,24,3904.39, 0,3965.18, 6,3927.68,-14
116053,1,31.33,-1,31.59,-23,31.22,19,3904.39,-32,3968.29,-21,3916.59, 8
116158,1,31.48, 5,31.53, 2,31.24,19,3902.44,32,3936.04, 6,3944.21, 8
116263,1,31.50,-3,31.48, 1,31.27,-32,3904.39,-16,3924.70, 0,3986.71,16
116367,1,31.53, 5,31.36,10,31.31,-14,3904.39,16,3954.15, 5,42.93, 2
116472,1,31.56, 7,31.25, 5,31.08, 2,3905.37,-32,3970.61,-2,54.21, 2
116577,1,31.79, 9,31.41,13,31.37,-3,3905.37, 0,3.23,13,46.46,-13
116681,1,31.69, 8,31.45,18,31.20, 0,3903.41,16,13.48,16,38.54,-3
116785,1,31.68,-14,31.45,12,31.10,-20,3905.37,-48,30.73,30,26.77,-1
116890,1,31.60, 6,31.52, 5,31.13, 6,3904.39,-32,2.99, 0,12.32,-6
116995,1,31.53, 1,31.44,-7,31.06,-15,3902.44,32,12.56,-17,12.50,-1
117100,1,31.59, 0,31.35, 2,31.12,-14,3902.44,16,14.88, 1,4.63, 0
117205,1,31.68,-21,31.46,-57,30.98,-1,3905.37,-32,7.32,-22,14.63, 8
117310,1,31.74, 1,31.47,-5,31.28,-26,3903.41, 0,20.18,-8,3982.74,-6
117415,1,31.57,-88,31.35,-168,30.83,93,3901.46,32,31.28,21,3983.29,30
117520,1,31.50,23,31.34,-23,31.18,-24,3903.41, 0,13.05,106,3955.43,15
117625,1,31.41,19,31.37,-22,31.29,22,3903.41,-16,3981.71,15,3989.51,-7
117729,1,31.47,-1,31.42,-22,31.33,-9,3902.44,32,3986.16, 8,3983.96,-1
117834,1,31.49,13,31.31,-1,31.41,11,3904.39, 0,39.94,10,3979.88,-13
117939,1,31.54,16,31.33,-5,31.40,-4,3902.44,32,15.67,-7,3949.76, 2
118044,1,31.50,-6,31.15,-11,31.60,-15,3902.44,32,58.90,31,3938.84,-5
118149,1,31.50,-10,31.23,13,31.83, 5,3904.39,-16,148.72,27,3944.94, 2
118254,1,31.25,-3,31.39,-2,31.84,22,3903.41,-32,228.90,42,3986.46,17
118358,1,30.96,16,31.81, 5,31.79,19,3903.41, 0,186.04,-90,59.82, 0
118463,1,30.89,-8,31.57,-2,31.81,-4,3903.41,48,38.35,22,83.90, 2
118568,1,30.86,21,31.61,10,31.85,-22,3903.41, 0,104.39,26,93.23,-2
118673,1,30.92,-7,31.73, 5,31.84,-29,3903.41,16,167.68,-3,70.61,-13
118778,1,31.06,13,31.76, 6,31.85,-2,3903.41,-48,120.00,-10,40.61,-2
118883,1,31.20,-14,31.76,-2,31.84, 7,3903.41,16,100.49,-6,26.34, 4
118988,1,31.11, 3,31.71,-8,31.84,-3,3903.41,-16,81.89,-9,13.35,-4
119093,1,31.05, 6,31.66,-8,31.83, 1,3902.44,32,49.27,-8,3.54, 0
119197,1,30.97, 9,31.64,-8,31.85,20,3904.39, 0,22.56, 8,2.93,-5
119302,1,31.07,18,31.73,-10,31.87, 8,3902.44, 0,4.63,-12,3991.22,-2
119407,1,31.06,10,31.74,-23,31.87,-3,3904.39,16,3975.43, 6,3990.85, 8
119512,1,31.04, 9,31.75,-6,31.89,-5,3905.37,-32,3994.21, 2,0.61, 1
119617,1,31.08, 3,31.75, 2,31.92, 8,3905.37,-32,3989.39,-2,3995.67,-1
119722,1,31.10,-22,31.72,-1,31.94,-14,3904.39,-32,3970.79,-2,3988.48,-2
119826,1,31.04,10,31.68, 6,31.93, 9,3904.39,-32,3969.09, 1,3980.79,-4
119931,1,31.04,-4,31.66, 3,31.89,-5,3904.39,-32,3948.66, 4,3976.46, 0
120036,1,31.06,10,31.69,12,31.86, 1,3904.39,-16,3947.01,-5,3973.84, 1
120142,1,31.08, 7,31.68,12,31.85,10,3903.41, 0,3955.06, 6,3980.73, 1
120247,1,31.04, 2,31.71, 7,31.87,-8,3901.46,48,3963.11,-3,3985.67,-3
120352,1,31.06,-4,31.73,12,31.95,21,3903.41, 0,3954.51, 7,3982.56, 3
120457,1,31.10,-4,31.77, 2,0.03,-18,3905.37,-16,3966.04,-9,3967.07,-6
120562,1,31.14,-1,31.75,-9,0.00,-1,3903.41,-16,3934.33,-5,3949.45,-9
120667,1,30.96,-3,31.64,-15,0.01, 6,3904.39, 0,3874.33,-3,3947.07,-5
120775,1,31.06, 2,31.60, 4,0.05,-16,3904.39, 0,3893.11,-11,3937.32,-4
120880,1,31.23,13,31.37,-1,0.19,-6,3902.44,16,3921.28,24,3935.43,-5
120984,1,31.34,-8,31.24,-18,0.23,30,3903.41, 0,3935.79, 7,3926.34, 0
121089,1,31.45, 8,31.16,-2,0.20, 8,3901.46,32,3952.13,-3,3934.27, 3
121193,1,31.50,12,30.93,-47,0.01,11,3903.41,-16,3905.98,37,3957.01,10
121298,1,31.56, 3,31.23, 4,31.70,-26,3902.44,32,3928.05,-56,3981.52,15
121403,1,31.75,13,31.32,-17,31.67,-2,3904.39, 0,3874.15,-52,3995.43, 4
121508,1,31.55,-13,31.15,-49,31.56,11,3904.39,16,7.26,41,4.70, 7
121613,1,31.52, 2,31.09, 9,31.76,10,3903.41, 0,36.65,-13,29.27, 0
121718,1,31.70,-16,31.12,-67,31.75,-20,3903.41, 0,3919.82,-7,14.57, 7
121823,1,31.67, 7,31.16, 4,31.72, 8,3903.41,-16,3916.95,-49,5.49, 3
121928,1,31.40,94,31.22,51,31.38,-30,3901.46,16,3802.50,34,3977.44, 3
122032,1,31.45,-14,31.16, 6,31.34,13,3904.39,-32,3983.84,68,3993.23,-26
122137,1,31.38, 1,31.28,-29,31.39,24,3904.39,32,5.24,39,11.22,-10
122241,1,31.42, 3,31.13, 1,31.35, 3,3902.44,-16,70.49,42,32.38,-14
122346,1,31.56,37,31.23,-93,31.47,-41,3903.41,-32,107.99,85,41.28,11
122451,1,31.57,-19,31.62,-43,31.52,-1,3903.41, 0,3961.16,-50,46.59,70
122556,1,31.44,-20,30.72,-26,31.36,-3,3903.41, 0,3908.54,78,67.62,-6
122660,1,31.42, 9,31.28,18,31.47,-29,3902.44,32,54.02, 5,55.79, 1
122765,1,31.50,-29,31.18,-3,31.35,-9,3901.46,16,102.62,34,46.10,-2
122870,1,31.51,31,31.24,27,31.38,11,3902.44, 0,73.78,-14,56.52,11
122975,1,31.53,-14,31.37,-6,31.53,-7,3904.39, 0,49.09,-53,45.43,-22
123080,1,31.56,25,31.25, 5,31.49,-9,3902.44,16,39.70,-24,24.02,-1
123185,1,31.62, 0,31.10,23,31.60,24,3901.46,32,30.24,-23,23.17,-14
123289,1,31.65, 7,30.96,-44,31.77,33,3903.41, 0,82.01,41,10.73,-11
123394,1,31.74,13,31.14,-13,31.94, 6,3903.41,16,101.10,-34,3991.65,-9
123499,1,31.77,13,31.08,-9,0.06,34,3902.44, 0,111.52,63,3980.67, 5
123604,1,31.63,-6,31.16, 3,0.19,-4,3902.44,32,35.73,-46,0.49,-4
123708,1,31.64,-6,31.05,-8,0.16,21,3902.44, 0,3969.21,24,8.23,-1
123813,1,31.74, 5,31.10,-10,0.15,-4,3904.39,-16,3964.76, 9,3988.78, 0
123918,1,31.68,-11,31.06,-9,0.10,-20,3903.41, 0,3.48,-16,3990.73, 3
124023,1,31.66,-13,31.02,15,0.17, 1,3904.39, 0,13.23,-1,3990.73,-1
124128,1,31.73,12,31.15,-12,0.10,15,3906.34,-64,23.29,-20,3987.87,-3
124233,1,31.76,15,31.13,-13,0.20,-1,3902.44,16,72.26,-12,8.96, 1
124337,1,31.77,-10,31.11,-6,0.29,-13,3905.37,-48,58.54,13,12.20, 4
124442,1,31.74,-17,31.33,29,0.27,26,3903.41,16,31.34,-70,8.90,-8
124547,1,31.75,21,31.17,12,0.33,-20,3902.44, 0,5.67, 7,3987.44, 7
124652,1,31.78,-5,31.17, 7,0.35,17,3906.34,-32,32.44,-10,10.43, 0
124757,1,31.79,-16,31.23, 4,0.41,-3,3902.44,16,40.73,-10,3995.24,-6
124862,1,31.72,-4,31.32,14,0.45,-18,3905.37,-32,81.95,-48,3992.93,-2
124967,1,31.66,13,31.32,-25,0.73,-19,3903.41, 0,8.29, 1,3980.73,-16
125072,1,31.86,-6,31.33,-20,0.61, 3,3901.46,64,3986.16,12,13.17,-8
125177,1,31.74, 3,31.27,-11,0.54,-20,3902.44, 0,6.34, 2,11.46, 3
125281,1,31.81, 7,31.33,20,0.51,-6,3902.44,32,3986.22,-9,3991.16, 8
125387,1,31.71,-5,31.30, 5,0.57, 7,3905.37,-64,6.40,-8,3992.50,-9
125492,1,31.78,12,31.29,-4,0.60,-2,3903.41,16,3990.79, 1,3984.33,-6
125597,1,31.81,13,31.16,-24,0.43,-61,3905.37,-16,3905.98,30,3979.94,22
125702,1,0.02, 6,31.21,-4,0.45,-7,3904.39,-32,3903.35,-53,3970.18, 1
125807,1,0.06,12,31.06, 4,0.30,-14,3902.44,32,3876.83,25,3964.39, 7
125912,1,0.04, 1,31.37,-17,31.95,-25,3902.44,16,3834.39,-24,3987.93,16
126017,1,31.77,44,30.52,-56,31.83,-39,3903.41,-32,3893.72,165,3974.51,-8
126122,1,31.99, 8,30.89,28,31.88, 4,3904.39,-32,45.37,51,3992.62,20
126227,1,31.96,55,31.27,-21,31.95,-57,3904.39,-32,3989.63,-102,3975.12,-41
126331,1,0.06,-2,30.90,-52,31.72,-65,3902.44, 0,3942.62,51,3972.32,12
126436,1,0.04,-4,30.88,-6,31.80,-16,3904.39,-48,3973.29,38,3982.93, 4
126541,1,0.07, 3,30.98,34,31.65,-31,3903.41, 0,30.24,-19,3990.79,27
126646,1,31.85, 9,31.03,-15,31.89, 2,3903.41,16,3971.89,-11,3980.67,-11
126751,1,0.21,-24,30.61, 2,31.06,63,3904.39,32,54.02,94,42.87,42
126856,1,31.90, 2,30.99,-25,0.01,-15,3904.39,-32,3944.39, 6,3986.22,-12
126961,1,31.86,13,30.86,-29,31.95,-33,3905.37, 0,54.15,63,3994.88,-65510
127066,1,31.94, 4,31.05, 8,31.85,-15,3905.37,-32,42.44, 3,3995.24, 1
127170,1,0.01, 6,31.03,-23,31.96, 4,3903.41,16,3990.79,29,3992.38,-2
127275,1,31.97, 8,30.95,-17,31.93,45,3904.39,-32,3988.54,13,3985.37, 6
127379,1,31.91,19,30.95,57,31.91,-29,3904.39,16,16.34,-10,3988.72, 6
127484,1,31.97,16,31.02, 0,31.89,28,3901.46,64,3961.71,18,3977.44,-11
127589,1,31.87,-9,30.78, 0,0.14,19,3905.37,-48,48.90,30,3949.82,-14
127694,1,31.98,-26,31.13,90,0.15,37,3904.39, 0,70.49,-9,3974.57,-5
127799,1,31.91, 4,30.79,13,31.92,-10,3904.39,-16,3993.17,26,3948.66, 8
127904,1,31.81,-6,31.18,-14,31.96,-65428,3903.41, 0,3901.28,-40,3926.89,-17
128009,1,31.69, 4,31.21,-95,0.40,-34,3904.39,-32,55.67,-131,3981.77,-6
128114,1,31.57,22,31.39,-9,0.27,-71,3904.39,32,3.17,65443,3920.49,-6
128219,1,31.91,51,31.22,-58,0.14,13,3901.46,64,21.10,35,3919.82, 6
128324,1,0.22,-3,31.34,21,0.43,11,3905.37,-48,148.05,-41,3908.66, 7
128429,1,0.36,-29,31.43,-51,0.49,12,3903.41,16,68.23, 8,3962.26,20
128534,1,0.17, 8,31.27,-7,0.54,-9,3904.39, 0,3973.35, 3,3955.79,11
128639,1,0.18,-45,31.85, 5,31.96,17,3902.44, 0,3990.06,-11,82.20,46
128744,1,31.30,-22,31.22,-41,0.67, 7,3904.39,-48,15.67,33,194.39,-6
128848,1,30.64,-38,31.47,-1049,2.13,656,3905.37,-32,3897.38,-475,151.22,-410
128953,1,31.29,13,31.35,44,0.56,-42,3903.41, 0,3970.79,16,10.43,-8
129058,1,31.65, 6,31.52, 0,0.44,-12,3901.46,16,3907.74,-6,2.93,-11
129163,1,31.63,-10,31.35,-22,0.25,11,3904.39,-32,3960.06,28,3975.73,-4
129267,1,31.63,-28,30.77,-10,0.89,13,3902.44,-16,3973.78,64,3957.44,-13
129373,1,31.67,-2,30.88,-10,0.63,-14,3903.41, 0,14.09,-16,3887.20,-9
129478,1,31.67, 7,31.01,-2,0.24,-19,3903.41,16,4.94,-28,3880.61, 6
129583,1,31.76, 8,31.15,-14,31.98,26,3901.46,16,3916.34,-52,3947.56,16
129688,1,31.79,-4,31.25, 2,0.12,-2,3904.39,-32,3957.01,-33,3985.30,-8
129792,1,31.98,-2,31.51,-22,31.95,-17,3902.44,32,3959.21,-55,30.00,17
129897,1,31.78, 5,30.96, 1,0.54,-16,3904.39,-32,3983.78, 6,27.38,-27
130002,1,0.06,-9,31.01,83,0.36,-48,3904.39,-16,2.80,-19,25.49,-9
130107,1,0.09, 2,31.10, 9,0.10,-16,3902.44,16,8.05, 4,26.22, 1
130211,1,0.06, 7,31.07, 7,0.13,-15,3903.41,-32,3988.05, 0,13.05, 3
130316,1,0.13,-9,31.09,-4,0.19,-7,3905.37, 0,3991.16,-1,0.55,-1
130421,1,0.23,24,31.09, 9,0.23,-19,3901.46, 0,14.82, 4,3983.35, 4
130526,1,0.29,18,31.12,15,0.26,-35,3904.39, 0,21.22,-11,3958.78,-7
130631,1,0.42, 4,31.12,-1,0.25,32,3902.44, 0,3983.84, 1,3944.39,-8
130736,1,0.42, 1,31.16,-16,0.08,14,3902.44,16,3984.76,-37,3941.10,-9
130840,1,0.42,-4,31.09, 9,0.06, 6,3903.41,16,26.16,-16,3923.78,-3
130945,1,0.47,-6,31.00,-16,0.03, 4,3905.37,-48,3972.20,17,3906.59,-6
131050,1,0.49, 1,31.19,-22,31.82,-13,3902.44, 0,3906.89,-13,3892.68,11
131155,1,0.42,-9,30.90,-45,31.77,41,3902.44, 0,3969.57,114,3930.61, 5
131259,1,0.31,-15,31.00,-25,31.64,13,3902.44,16,3913.48, 0,3942.74,-3
131364,1,0.34,-33,31.11,-8,31.45,21,3903.41, 0,3993.48,-5,3959.21, 6
131469,1,0.11,-6,30.99,-1,31.65,-1,3903.41, 0,3987.07,48,3984.51,-9
131574,1,0.18,-8,31.04,19,31.62,-27,3903.41,16,13.72, 3,5.85, 6
131679,1,0.10, 0,31.03,-19,31.57,-1,3902.44,-32,3985.06, 0,26.40, 8
131784,1,0.22,43,30.97,-3,31.60,-6,3902.44,16,3990.61,18,62.87,13
131889,1,0.31,-11,31.10,13,31.70,-16,3904.39,-16,15.49, 9,79.27, 1
131994,1,0.43,-5,31.06,-6,31.76,-8,3903.41,-16,3987.74,16,64.09, 2
132099,1,0.41, 8,30.95, 8,31.82,24,3905.37,-64,3976.65,32,62.26,-4
132204,1,0.31, 4,31.02,-5,31.64, 8,3905.37,-48,3987.38,-12,49.02, 6
132308,1,0.20, 4,30.97,-10,31.84, 0,3900.49,32,3995.00,-11,34.88,-12
132413,1,0.27,25,30.99,15,31.93, 6,3904.39,-32,3983.29,-1,8.90,-9
132518,1,0.14,-6,30.97,20,31.79,17,3902.44,16,39.51,-28,3994.94, 4
132623,1,0.27,-22,31.29,24,31.91,-11,3901.46,32,3981.71,-36,3970.67,-6
132727,1,0.11,-12,31.12,-27,31.97,23,3903.41, 0,84.57, 1,3917.44,-18
132832,1,31.88,-27,31.02,-2,31.82,-101,3900.49,32,24.02, 3,3897.99, 2
132937,1,31.35,28,31.16,33,31.49,-64,3903.41,-16,49.70,-94,3982.74,42
133042,1,31.85, 0,30.89,17,31.22, 9,3902.44, 0,58.54,-52,301.10,93
133147,1,0.03,14,31.13,14,31.85,-52,3900.49,32,3896.77,-6,395.91,27
133252,1,31.48,-39,30.99,-36,31.76,-5,3902.44,16,3964.76,55,331.34,-34
133358,1,31.56, 5,31.19,-9,31.81,-11,3901.46,16,70.91,19,191.83,-30
133463,1,31.65,11,31.22,15,31.66,14,3901.46,48,2.13,-30,91.40,-11
133568,1,31.81, 7,30.97, 6,31.64, 2,3902.44, 0,3916.52,75,47.68,-15
133672,1,31.83,-1,31.15,-23,31.63, 1,3902.44, 0,3986.10,-19,3977.38,-28
133776,1,31.96, 5,31.16, 8,31.67, 1,3902.44,-16,5.49, 1,3933.66,-3
133881,1,31.81,-14,31.36,28,31.88,-3,3901.46,32,3960.73,-25,3910.98,-14
133986,1,31.30,-10,31.45,-3,31.72,-19,3903.41,-32,3818.11,-24,3911.34,-3
134091,1,30.92,16,31.53,-19,31.50,36,3901.46,16,3980.24,-17,3899.88,55
134196,1,30.98,-40,31.77,-15,31.70,28,3904.39, 0,3918.60,-19,3959.70, 0
134301,1,31.16,-1,31.59, 1,31.83,23,3904.39, 0,3990.18, 6,3979.21,-4
134406,1,31.21,-10,31.36,-11,31.88,13,3902.44, 0,3983.11,-29,3971.65,-2
134511,1,31.22, 7,31.45,-47,31.74,-4,3902.44, 0,21.77,-28,3963.35,-9
134616,1,30.95,-7,31.31,-15,31.69,-1,3902.44,16,41.59,25,3981.04, 6
134720,1,30.59,-10,31.19,160,31.91,129,3903.41,-32,123.17,-86,52.62,-29
134825,1,30.99, 6,31.05,32,31.46,-50,3901.46, 0,3938.90,-53,35.37, 1
134930,1,31.09, 6,31.25,46,31.36, 3,3901.46,48,3867.62,-172,3994.21,-6
135035,1,31.81,29,31.14,56,31.63,-52,3903.41,-16,9.27,28,3981.77,-13
135140,1,0.02,-1,31.01,-32,31.35,20,3902.44, 0,38.72,121,3995.79,-15
135245,1,0.01,-15,31.23,58,31.31,-9,3902.44, 0,10.98,-9,3995.73,-65530
135350,1,0.41,32,31.31,27,30.85,-90,3902.44, 0,35.06,18,9.76,26
135455,1,0.60,-38,31.50,115,31.40,111,3902.44,16,357.99,-129,24.27,20
135560,1,0.58,-4,31.50,-9,0.31,-11,3902.44,16,258.17,-145,71.65,-29
135665,1,0.63, 3,31.36,152,31.99,-28,3903.41, 0,3959.70,-24,13.05,51
135770,1,0.64,20,31.65,-11,31.98,17,3901.46, 0,3879.94,-7,3963.41,18
135875,1,0.97,78,30.45,22,31.05,-33,3903.41,16,148.54,58,3981.46,47
135980,1,0.49,31,31.65,66,31.54,-94,3902.44, 0,3970.37,-2,3966.04,31
136085,1,0.54,11,31.27,19,0.07,-61,3902.44,32,36.34,68,3977.13,-1
136189,1,0.52,-22,31.34,-32,0.00,65515,3901.46,32,66.95,28,3993.78,-12
136294,1,0.49, 9,31.26,-13,0.00, 0,3901.46,16,3985.18,-5,3972.62,-4
136399,1,0.47,17,30.99,-17,0.03,24,3901.46,-16,3956.95, 6,3978.35,10
136504,1,0.50, 8,30.87,-7,31.97,-14,3902.44, 0,3957.99,15,3977.50,19
136609,1,0.28,-23,30.92, 8,31.90, 8,3902.44,-32,7.38, 7,3972.87, 2
136714,1,0.15,-17,31.29,24,31.86,-9,3902.44,-16,9.63,-47,3976.59, 5
136818,1,0.04,-19,31.25,-16,31.77,11,3903.41, 0,18.84,-28,14.57, 9
136923,1,31.93,-1,31.03,-17,31.91,-14,3903.41,-32,48.48,27,69.02,10
137027,1,31.39,-7,30.80,32,0.30,51,3903.41,16,187.44,110,79.33,-21
137132,1,31.27,-13,31.26,62,0.31,-8,3902.44, 0,90.00, 1,64.63,21
137236,1,31.01,-119,31.37,91,0.63,244,3902.44, 0,3909.27,63,3994.39,-89
137341,1,30.75,15,31.10,-14,0.27,-8,3902.44,-16,3901.46,25,3995.85,-65532
137446,1,31.06, 7,31.40,17,32.00,-13,3903.41, 0,3911.52,23,25.00, 5
137551,1,31.33,17,31.75,-14,0.01,65519,3903.41,32,3958.90, 1,7.56,-9
137656,1,31.10,-3,31.61,-14,31.92, 7,3903.41,16,3930.61,-21,3985.55, 3
137761,1,30.96,13,31.38,10,31.89,-9,3902.44, 0,3898.90,18,3987.38,-5
137865,1,30.94,-5,31.45,-16,31.82,-4,3900.49,32,3977.87,11,3989.02, 8
137971,1,30.89,-15,31.55, 2,31.86,38,3902.44, 0,22.44,24,3994.27,-4
138076,1,31.17,-5,31.75, 2,32.00,-13,3902.44,-16,22.26,18,3975.73,-14
138184,1,31.39,-14,31.85,10,31.99,-31,3904.39,-32,22.26,-18,3923.23,-13
138290,1,31.36, 3,31.71,-15,0.04,20,3901.46, 0,19.51, 8,3921.16,-16
138395,1,31.34,17,31.65,12,0.15,-9,3903.41, 0,3971.40,-42,3904.45,-7
138500,1,31.53, 7,31.28, 3,0.23,13,3903.41,-32,3840.61,-13,3903.29, 4
138605,1,31.68,-14,31.05,-2,0.07,-9,3903.41,-16,3793.54,-10,3932.44, 0
138710,1,31.64,-5,31.00, 2,0.01,-18,3902.44, 0,3913.66,21,3963.11,-9
138816,1,31.75,-2,31.21, 7,31.95,84,3900.49,32,3968.41,-10,3942.13,-15
138922,1,31.86, 0,31.01,-20,31.93,-19,3900.49, 0,3949.09,-18,3932.80, 7
139027,1,31.92,-7,30.72,27,31.96,-6,3902.44,32,16.77,66,3982.07, 5
139132,1,31.87,-11,31.06,-23,31.77,18,3902.44,-16,53.78, 0,21.65, 9
139236,1,31.75, 1,30.95,24,31.91,-2,3901.46, 0,13.17,22,3970.73,-21
139341,1,31.80, 8,31.24,-12,31.88,-34,3901.46,32,9.51,-5,3909.57,-6
139446,1,31.78,-26,31.24,-30,31.80,-10,3901.46,16,3811.16,-112,3927.20,-1
139551,1,31.71, 0,30.93,31,31.76, 5,3902.44,-32,3979.70,75,3918.29, 3
139655,1,31.68,-6,30.62,-1,31.63, 4,3902.44,-32,3910.55,10,3914.70,-13
139760,1,31.75,26,30.99,17,31.66,24,3902.44,16,3952.07,-30,3882.38, 3
139865,1,31.62, 4,31.17, 0,31.70, 6,3904.39,-48,3991.77,-6,3913.11, 4
139970,1,31.52,24,31.17, 8,31.69, 3,3901.46, 0,3968.66,10,3966.52,20
140075,1,31.66,-2,31.21,-5,31.73, 5,3903.41,-32,65.85, 3,26.59, 1
140180,1,31.73, 7,31.06,-15,31.74,-23,3901.46,-16,22.32, 7,57.74,13
140284,1,31.68,-14,31.06,-3,31.71,-3,3900.49, 0,71.40, 9,108.41, 8
140389,1,31.46,-5,31.13,-10,31.68,-32,3900.49,32,82.93,18,131.77,-5
140494,1,31.17,12,31.31,10,31.55,-4,3900.49, 0,88.29,-28,78.84,-14
140599,1,31.32, 2,31.25,-4,31.64,23,3902.44,-16,36.83,27,49.70,10
140703,1,31.49,16,31.23,-1,31.65,-20,3903.41,-32,22.13,-1,71.16, 2
140808,1,31.49, 3,31.15, 4,31.69,14,3901.46,16,44.63, 0,93.84, 1
140913,1,31.47,-11,31.21,-13,31.72, 3,3902.44, 0,43.90,-2,78.48,-12
141018,1,31.41, 0,31.18,-5,31.69,-11,3900.49,32,31.83,-8,42.20,-2
141123,1,31.45, 3,31.16, 8,31.67, 0,3900.49,32,29.09, 1,33.60, 2
141228,1,31.46,-14,31.15, 0,31.73,-5,3900.49,16,40.98, 1,32.62,-3
141332,1,31.46,13,31.23,-16,31.72, 7,3899.51,32,13.72,-9,3987.38,-11
141437,1,31.84,30,31.08,19,31.80,-6,3902.44, 0,43.17,30,3988.23,11
141542,1,31.91, 1,30.90,20,31.90,-7,3901.46,16,70.91,25,10.55,13
141647,1,31.76,-17,31.20,-13,0.23,12,3902.44, 0,37.01,-23,16.34,-11
141752,1,31.41,-19,31.04, 8,0.22,-9,3902.44,-16,70.00,17,1.04,-4
141857,1,31.67,-12,30.98,76,0.46,52,3900.49,48,154.45,52,3989.45,-15
141962,1,31.76,-3,31.53,21,0.16,-12,3901.46, 0,36.89,-123,3992.44, 0
142067,1,31.79,43,30.95,91,0.42,-40,3899.51, 0,123.60,14,3948.96,-3
142172,1,31.71,25,31.12,-50,0.58, 3,3901.46,48,27.32,-5,3910.37,-6
142278,1,31.75,-1,31.55,-3,0.54,-8,3901.46, 0,69.45,26,3962.13,23
142384,1,31.72,-6,31.36,59,0.78,-13,3900.49, 0,120.12,-29,15.43,-11
142489,1,31.35,56,31.12,96,0.69,-34,3902.44, 0,69.82,-11,3951.77,-17
142594,1,31.68,-4,31.46, 1,0.36,12,3902.44,-16,3862.26,16,5.18,27
142698,1,31.79,-7,31.74,19,31.96,-19,3902.44,-16,11.34,-32,63.48,43
142803,1,31.77,10,31.28,28,0.24, 6,3902.44,-16,3968.54,-37,171.83,18
142908,1,31.93,-36,31.49,12,0.50,27,3899.51, 0,3961.40,25,192.62,-18
143013,1,31.22,-35,31.16,-54,0.54, 6,3903.41,-32,3938.35,16,63.29,-57
143118,1,31.28,-23,31.24,-40,0.40,-16,3899.51,32,3844.70,-1,3942.01,-15
143223,1,31.25,-82,31.05,-74,0.27,14,3902.44, 0,3928.17,-37,3932.99,-9
143327,1,31.43,-5,31.20,-51,31.93,24,3902.44,-32,3879.70,-86,3959.70,-35
143432,1,31.58,-59,30.86, 1,31.80, 1,3902.44,-16,3909.51,60,3943.29,-4
143537,1,31.41,10,31.15, 5,31.66,31,3903.41,-16,3947.26,-47,3965.55,-2
143642,1,0.00,65532,31.05,-1,31.71,-26,3901.46,16,3923.23,-16,3929.94,10
143747,1,31.67,-19,31.20,-9,31.29,19,3902.44,-32,48.05,-7,10.43,20
143852,1,31.68,39,30.97,52,31.39, 6,3900.49, 0,3978.35,34,3993.05,26
143957,1,31.45,-23,30.96,14,31.56,-11,3901.46, 0,19.21, 4,32.93,-5
144062,1,31.62,29,31.09, 9,31.53,-2,3903.41,-32,3988.60,-30,15.85, 3
144167,1,31.67,16,31.21,19,31.51,-35,3899.51,32,3938.17,-40,7.20,10
144272,1,31.79, 6,31.24,40,31.35,-46,3903.41,-16,3887.68,-57,3986.46,-1
144377,1,31.62, 5,31.18,24,31.42,-3,3902.44, 0,3910.43,14,10.06, 2
144482,1,31.53,13,31.33,-3,31.40, 2,3900.49,16,3961.46, 4,8.90,-20
144587,1,31.31, 4,31.52,-10,31.30,-58,3900.49,16,12.80,-73,20.67,11
144692,1,31.54,-7,31.52, 7,31.27,20,3903.41,-32,42.56,-23,3989.88,-7
144796,1,31.53, 5,31.28,58,31.18,10,3901.46, 0,17.13,14,3985.43, 8
144901,1,31.51, 2,31.17,-2,31.13, 7,3903.41,-48,4.21,68,16.89, 6
145006,1,31.63,-30,31.59,72,31.01,-75,3900.49,32,3966.77,-63,50.43,24
145111,1,31.50,-18,0.06,13,30.77,11,3902.44, 0,3857.01,14,115.55,21
145216,1,31.49,17,31.85,-21,30.74,22,3900.49,16,63.90,45,146.04, 9
145321,1,31.65,62,0.58,60,30.89,115,3901.46,-32,71.22,-539,81.52,-23
145426,1,0.12, 2,31.74,-6,31.03,-24,3901.46, 0,3982.13,15,32.62, 4
145531,1,0.08, 6,31.88, 5,30.83,23,3902.44,-32,33.29,-2,38.60,-3
145636,1,0.20,-1,31.86,42,30.88, 0,3902.44,-32,31.16,-16,34.70,-1
145741,1,0.17,-27,31.79,12,30.91,56,3900.49, 0,3988.72,-18,45.30, 4
145845,1,0.15,19,31.75,-23,30.97,-43,3902.44,-16,3995.49,-17,30.85,-2
145950,1,0.21,-7,31.71,18,31.07,-20,3901.46, 0,14.82,-8,3.78,-11
146055,1,0.21,-11,31.64,-13,30.96,-26,3901.46,-16,3992.87, 8,3983.66,-1
146160,1,0.24,18,31.69,40,30.93,-21,3901.46,-16,3989.45,-23,3978.90, 2
146265,1,0.21,-14,31.66,11,30.88,-10,3902.44, 0,4.51,10,3971.89, 0
146370,1,0.25,-2,31.69,15,30.91,-22,3900.49,48,21.95, 1,3983.60, 5
146475,1,0.25,-2,31.73, 3,30.90,-11,3901.46, 0,1.40,-15,3995.79, 3
146580,1,0.24,-5,31.71,-9,30.93,10,3903.41,-32,3984.21,-1,5.37, 2
146685,1,0.21, 5,31.69,-4,30.98,37,3900.49, 0,3982.50, 2,0.30,-2
146790,1,0.27,15,31.65,-42,30.90,17,3900.49,16,0.43, 5,3990.12, 3
146895,1,0.21,-4,31.68, 7,30.94, 8,3901.46,-32,7.26,-11,3989.39,-5
147000,1,0.21,-7,31.60,-22,30.89,30,3901.46,16,14.82,12,3994.51,-2
147105,1,0.08,-27,31.79,28,30.92,10,3900.49, 0,3990.61,-15,5.98,-5
147209,1,0.29,-10,31.62, 5,31.02,15,3900.49, 0,3935.06,32,3967.07,-6
147314,1,0.22,-34,31.64,74,30.88,-44,3900.49,16,3957.26,35,3980.43,-7
147419,1,0.11,15,31.79,-7,30.90,-3,3903.41, 0,9.70, 8,3986.04,-5
147524,1,0.09,-5,31.74,21,30.82,19,3900.49,32,53.05,17,3979.88,-1
147629,1,0.07,18,31.75,-18,30.90,-30,3902.44, 0,45.37,-2,3982.80, 1
147734,1,0.10,-3,31.71, 8,30.89,-19,3902.44,-16,33.48,-17,3990.06, 3
147838,1,0.09,15,31.68,-16,30.97, 9,3901.46, 0,3991.46,-2,3994.33, 1
147943,1,0.10, 1,31.62, 1,30.95, 3,3900.49,32,3983.60, 9,3993.96,-4
148048,1,0.06,-23,31.62,-5,30.94,31,3902.44,-64,3991.04,14,3989.02, 5
148153,1,0.09,-6,31.67,-6,30.91, 0,3902.44,-16,2.80,-3,3988.48,11
148257,1,0.07,-2,31.69,19,30.94,-8,3901.46, 0,3990.30,-16,3993.23,-7
148362,1,0.14, 2,31.63, 6,30.95,12,3902.44,-32,3986.04,-2,2.68, 1
148467,1,0.06,-2,31.72,-1,30.92,21,3902.44,-64,0.49,-4,3993.23,-1
148572,1,0.10,12,31.71, 6,30.83, 9,3902.44,-16,3935.79,-4,8.78, 0
148677,1,0.11, 0,31.77,-11,30.88, 2,3903.41, 0,3975.24,19,9.21, 2
148782,1,0.09,15,31.85,-9,30.87, 2,3901.46,32,3980.79,-2,4.94, 2
148887,1,0.12,-5,31.83, 0,30.91,-17,3901.46,16,29.94,-10,3987.62, 3
148992,1,0.18,18,31.79,15,30.85,-3,3904.39,-64,40.91,19,10.91,11
149097,1,0.03,-2,31.82, 6,30.95, 3,3902.44, 0,0.67, 5,3975.24,-12
149202,1,0.12, 3,31.72, 9,30.84,24,3900.49,16,4.45,-9,3980.00, 5
149306,1,0.09, 4,31.74,-13,30.88, 6,3903.41,-32,7.62,-3,3991.10, 7
149411,1,0.11,-2,31.73, 1,30.87,53,3901.46,16,15.98, 5,3992.68, 1
149516,1,0.02,-11,31.76,13,30.90, 7,3902.44, 0,20.24, 7,6.65, 3
149621,1,0.07,-5,31.75,-27,31.00,14,3902.44, 0,3978.84, 0,3994.88,-10
149726,1,0.09,-1,31.72,11,30.84,10,3900.49,32,3947.74,-6,3988.29, 6
149831,1,31.98,26,31.66,-5,30.84,14,3902.44,-16,3995.06,-65516,3988.05, 2
149936,1,0.02,-5,31.67,21,30.82,-32,3903.41, 0,18.35, 4,5.30, 6
150041,1,31.73, 1,31.90,-18,30.90,-14,3901.46,-16,66.28,-53,3985.67, 6
150146,1,0.27,10,0.09,-72,30.62,-80,3903.41,-48,70.91,-3,3986.40,40
150251,1,0.70,34,31.42,-50,31.01,-23,3900.49, 0,102.20,42,1.77,78
150355,1,31.29,104,31.21,-116,31.71,-191,3902.44,16,3934.70,-117,3948.54,-40
150460,1,0.09, 3,31.34,36,30.93,-20,3902.44,-16,3951.46,-10,3979.70,22
150565,1,0.06,53,31.60,38,31.11,-40,3901.46, 0,3974.88,29,3947.32,-1
150669,1,31.97,-23,31.26,-72,31.12,-2,3902.44,-32,5.06,162,3973.66, 5
150773,1,31.74,-233,31.18,-48,31.53,609,3900.49, 0,31.34,65020,3988.48,-147
150878,1,31.32,-6,30.93,-29,31.33, 1,3900.49,48,3968.96,54,3940.67,-12
150983,1,31.58, 6,31.24,-17,31.14,10,3899.51,64,53.66,21,3987.50, 7
151088,1,31.62,19,31.44,19,31.08,23,3901.46,32,67.38,-62,3984.39,33
151193,1,31.48,-11,31.37,-24,31.39,38,3903.41,-16,44.45,27,3989.94,-17
151297,1,31.39, 8,31.28,-13,31.29,45,3902.44,-32,3981.34,-6,16.46, 0
151402,1,31.48,-1,31.18,-5,31.42,14,3902.44,-32,3978.96,-9,11.83,-8
151507,1,31.48, 0,31.44,-22,31.37, 8,3902.44,-16,15.49,-68,3987.13,-6
151612,1,31.61, 7,31.31,-7,31.45,-41,3903.41,-32,11.04,-13,6.04,19
151716,1,31.66,24,31.19,14,31.35,-22,3901.46,48,3986.59,-15,3994.51,-3
151821,1,31.58,10,31.24, 6,31.45,-1,3900.49,32,3981.95,16,3992.68,-2
151926,1,31.56,-4,31.17,-7,31.46,27,3904.39,-64,3972.26,18,3977.99,-20
152031,1,31.66,29,31.16,-2,31.29,-20,3900.49,48,3995.91,-65533,3965.37,19
152136,1,31.47,-18,31.23,21,31.30, 3,3903.41, 0,71.71,24,9.45,-11
152241,1,31.37,13,31.52, 7,31.48, 3,3901.46,32,46.71,-12,15.91,-7
152346,1,31.44,-3,31.17,-10,31.54,-18,3901.46,16,3984.51,13,3986.77, 6
152451,1,31.43,-16,31.18, 5,31.49,23,3902.44, 0,3966.04,-1,3961.28,-4
152556,1,31.47,-9,31.23,-3,31.42,12,3904.39,-32,3947.62,-9,3944.45, 4
152661,1,31.43,-20,31.28,-6,31.45,15,3900.49, 0,3966.34, 7,3953.17,14
152765,1,31.41,-3,31.41, 2,31.54,14,3902.44,16,3962.20,-3,3966.34, 3
152870,1,31.39, 9,31.44,-9,31.48, 2,3903.41,-32,3952.20,-12,3976.95, 3
152974,1,31.31,-8,31.37,-3,31.49, 5,3901.46, 0,3962.38,-4,3983.48, 5
153079,1,31.31,-12,31.45,-6,31.56, 0,3901.46,16,3987.50, 7,3995.55, 3
153184,1,31.27,-2,31.38, 6,31.57,-6,3902.44, 0,26.22, 9,3993.41,-9
153289,1,31.34,16,31.41, 5,31.58,-14,3902.44,-32,6.40, 4,3987.50, 1
153394,1,31.34,-9,31.35,-3,31.48,-6,3902.44, 0,5.24,-5,3993.72, 6
153499,1,31.36, 6,31.39, 9,31.48, 2,3902.44,-32,22.80,-2,21.83,10
153604,1,31.35,-3,31.41, 2,31.50,18,3904.39,-16,30.91, 2,36.89, 3
153709,1,31.25,-8,31.43,21,31.50, 6,3904.39,-48,27.80,-4,35.67, 2
153813,1,31.26,12,31.43,-15,31.53,-22,3901.46,32,19.21,-4,28.29, 5
153918,1,31.32, 8,31.42,-5,31.53,20,3901.46,16,15.06, 3,24.27, 0
154022,1,31.33,-13,31.42,17,31.50,-4,3901.46,16,4.27,-8,11.22,-7
154127,1,31.37,-4,31.30,-2,31.43,17,3902.44, 0,3967.93, 7,2.93,-1
154232,1,31.50,13,31.36, 8,31.48, 3,3902.44, 0,3991.77,-5,9.57, 4
154337,1,31.40,-4,31.25,-10,31.38,-6,3903.41,-32,3995.98,-65532,0.79,-7
154442,1,31.38, 0,31.35,14,31.49, 3,3901.46, 0,0.73,-4,3987.20,-2
154547,1,31.39, 7,31.39, 5,31.47,-6,3901.46, 0,3981.59,10,3985.12, 6
154652,1,31.40, 5,31.36,-2,31.41,-19,3901.46,16,3984.39,-3,3977.13, 0
154757,1,31.45, 1,31.38,-3,31.41, 1,3902.44, 0,3976.95,-4,3964.45,-10
154862,1,31.37,18,31.39,-10,31.38,-21,3902.44, 0,3983.48,-24,3951.71, 0
154968,1,31.40,-10,31.31, 3,31.39,-11,3902.44, 0,3978.90,-4,3967.20, 4
155073,1,31.43, 4,31.26,10,31.45,-4,3902.44, 0,3986.10,-1,3979.76, 3
155181,1,31.45, 3,31.17,16,31.49,-5,3900.49,32,3991.28, 1,3992.01, 5
155287,1,31.52, 6,31.21,-2,31.54,-21,3902.44, 0,3983.78,14,8.66, 5
155392,1,31.58, 2,31.05,14,31.53, 0,3902.44, 0,6.77,19,6.46,-5
155497,1,31.76,30,31.03,31,31.43,28,3904.39,-32,3987.20,17,12.13, 6
155602,1,31.98,-1,31.10,23,31.45,-1,3902.44, 0,46.28, 0,32.44, 4
155707,1,0.09,-13,31.19,-1,31.55,25,3902.44,-16,53.78,24,45.73,-6
155812,1,0.11, 2,31.22,28,31.54,37,3899.51,32,96.46,-74,50.00,-12
155917,1,0.01,65512,31.14,10,31.75,-15,3903.41,16,141.22,-63,2.44,-14
156022,1,31.95,-30,31.18,-9,31.92,-28,3901.46,16,116.59,-82,1.89,-13
156127,1,0.07,10,31.00, 7,0.16,10,3904.39,-32,7.93,13,3980.67, 6
156231,1,0.15,-19,31.00,-9,0.15,19,3902.44,-16,3941.40,14,3988.35,-6
156336,1,0.22, 1,31.02, 2,0.13, 2,3901.46,32,32.38,28,3995.37, 7
156441,1,0.05,-12,31.02,-42,0.19,-10,3901.46, 0,4.21,-48,12.74,-14
156546,1,31.97,11,30.96, 3,0.19,-16,3902.44, 0,3933.41,-1,3979.45,-1
156651,1,0.13, 9,31.07, 9,0.05,-13,3902.44, 0,3939.94,-18,3995.49, 2
156756,1,0.10,-2,30.98,-5,31.94,-16,3902.44,16,3970.37, 4,4.45, 2
156861,1,0.04, 8,31.01, 6,31.95, 6,3903.41, 0,21.28,14,12.01, 9
156966,1,0.08, 5,31.06, 3,31.98,10,3901.46,32,23.78,-10,20.30,-4
157070,1,0.09,-3,31.13,-24,31.99,18,3901.46,16,19.27,-51,15.85,-6
157175,1,0.09,-15,31.25,37,0.08,-43,3901.46,16,31.40,-64,17.20,-2
157279,1,0.02,-7,30.91,-7,0.13,-6,3900.49,32,3914.94,23,3986.71,-12
157384,1,0.08,-7,30.99,-4,31.98, 6,3904.39,-16,18.48,12,15.67,10
157489,1,0.09, 2,30.77, 7,0.05,-18,3902.44,16,32.93,66,3994.15,18
157594,1,0.00,65506,30.87,55,31.94,-22,3903.41, 0,3927.99,92,0.24,16
157698,1,0.03,12,30.85,24,31.95,-22,3900.49,32,3982.44,14,3.23,-3
157803,1,31.52,-134,31.33,158,0.27,123,3902.44,-32,3923.29,-84,3982.62,-48
157908,1,1.08,62,31.46,-43,31.60,-52,3902.44, 0,3965.79, 8,3917.44,27
158013,1,31.54,-42,30.64,69,31.96,56,3902.44,-16,7.68,52,29.02,-5
158118,1,31.81,33,30.94,20,31.82,10,3903.41,-32,17.87,36,3980.00, 3
158223,1,31.79,-16,30.93,11,31.77, 7,3903.41,16,38.60, 7,3990.85,-9
158327,1,31.76,-4,30.94,23,31.80,-5,3901.46,48,23.17,22,3986.59, 2
158432,1,31.79, 1,30.96,-4,31.74, 5,3902.44,32,7.13, 7,3988.90,11
158537,1,31.79,-8,31.00,-19,31.76,21,3902.44,-32,8.35,-10,3993.60, 1
158642,1,31.80, 6,30.95,-3,31.79,22,3902.44, 0,3987.13,-38,0.18,65531
158747,1,31.90,-6,30.94,11,31.76,-19,3901.46,32,3968.11,-24,14.39, 6
158852,1,0.01, 4,30.99, 1,31.83,-4,3903.41, 0,3970.37,18,10.55,-4
158957,1,0.11, 6,31.09, 0,31.79, 2,3901.46,32,3969.09, 8,9.02, 0
159062,1,0.13,15,31.03,-30,31.80,-12,3902.44, 0,3981.40,-7,3993.78,-13
159167,1,0.15,10,30.96,-19,31.68, 6,3900.49,32,3965.43,-35,4.15,16
159272,1,0.01,65480,31.08,29,31.79,-1,3904.39,-48,3989.15,-36,8.35,-8
159377,1,0.25,-12,31.08,-36,31.68, 9,3901.46, 0,3982.99,-22,7.99, 8
159482,1,0.24,19,30.98, 4,31.74, 6,3903.41, 0,12.87,22,4.09,-2
159587,1,0.24, 8,31.03,-12,31.87,-7,3901.46,16,108.29,18,0.43, 0
159691,1,0.25,-16,31.10, 3,0.08,55,3904.39,-32,121.59,-8,3.54,-6
159796,1,0.33, 1,31.04,13,0.19, 1,3903.41,-32,76.22,17,7.44, 2
159901,1,0.35, 4,31.13,-4,0.20,-1,3901.46,32,15.49,-16,14.63, 9
160006,1,0.32, 3,31.30,26,0.19,-12,3904.39, 0,3935.49,-101,10.67, 0
160111,1,0.50,-30,31.11,-39,31.68, 8,3902.44,32,3641.89,22,21.28,34
160216,1,0.32,-14,31.05,-5,31.87, 5,3902.44,32,47.56,50,1.04,-6
160320,1,0.43,30,31.11,-11,31.91, 1,3899.51,32,113.41,-22,3991.59, 4
160425,1,0.46, 8,31.24,-28,0.07,15,3901.46, 0,137.68,-66,3988.72, 7
160530,1,0.41, 2,31.13,-8,0.37,15,3902.44, 0,83.17,51,3991.59,-1
160635,1,0.43, 3,31.25,-43,0.38,-22,3902.44, 0,21.89,-7,1.52,-2
160739,1,0.42,-7,31.27,-6,0.42,-12,3902.44,16,3767.26, 7,3994.02,-11
160844,1,0.33,-13,30.73,56,0.12,-24,3903.41, 0,3872.44,133,14.45,-2
160949,1,0.30,-17,31.06,-33,0.15,-16,3902.44, 0,52.20,24,3984.51,-12
161054,1,0.48,11,31.12,-4,0.12,17,3904.39,-32,75.12,-9,3988.11,-1
161158,1,0.42, 0,31.29,-14,0.31,-3,3902.44,16,89.09,-34,3993.66, 0
161263,1,0.39,-4,31.16, 5,0.46,-2,3902.44,-16,54.88,34,1.40, 5
161367,1,0.41,-5,31.34,68,0.47,-18,3901.46,32,108.96,11,3992.62,11
161472,1,0.35,-9,31.64,31,0.45,-5,3903.41,16,3979.63,-108,11.10,13
161577,1,0.41,-5,31.31,-28,31.70,-31,3902.44,32,3510.79,-100,30.91,39
161682,1,0.30,-3,30.84,-29,31.52,-2,3904.39,-32,3718.11,171,31.10,-29
161787,1,0.33, 7,30.92,13,31.46,27,3902.44,16,209.27,62,3980.61,-3
161892,1,0.35,-22,31.36,21,31.72,65,3901.46,64,297.01,-190,12.74,-4
161997,1,0.29,-3,31.12,64,0.25,48,3903.41,16,186.77, 1,7.13,-13
162102,1,0.39,-25,31.06,23,0.26, 4,3902.44,32,58.05,51,3.23,-11
162206,1,0.50,10,31.32, 1,0.21, 5,3902.44, 0,3986.83,-47,10.91, 3
162311,1,0.58,-18,31.02,-6,0.10,-23,3902.44,-16,3829.33,13,37.68, 3
162415,1,0.40,-3,31.09, 7,0.06, 4,3903.41,-16,3946.10,-44,20.24,-13
162520,1,0.43, 4,31.17,-2,31.81,12,3903.41,16,3935.79,-36,1.16,-7
162625,1,0.41,-5,31.23,-2,31.87,-9,3902.44, 0,3966.46,-11,3962.62,-6
162730,1,0.31,-11,31.14,24,31.72,-25,3902.44, 0,3971.52,-14,3939.76, 2
162834,1,0.27, 6,31.11,12,31.66,-2,3901.46,-32,3983.17,-5,3937.68, 3
162939,1,0.22,-16,30.93, 1,31.62, 7,3905.37,-64,3986.46,22,3945.91, 3
163044,1,0.21, 4,31.01,-7,31.54,-19,3904.39,-32,3969.39,-2,3950.79, 6
163149,1,0.09, 2,30.96, 7,31.48,-34,3903.41,-16,3977.80,-4,3975.24, 2
163253,1,0.01, 4,31.00, 0,31.47,38,3902.44, 0,3979.63, 1,3989.27, 3
163358,1,31.97,15,31.01, 5,31.49,-13,3902.44,-16,3988.66, 7,3991.46, 0
163463,1,31.97, 7,31.04,10,31.51, 1,3903.41,-32,0.43,-2,4.82, 0
163568,1,31.95,-2,31.04, 9,31.49, 9,3903.41,16,0.79,-4,1.83, 6
163673,1,31.95,-4,31.09, 8,31.51,-7,3903.41,-16,5.30, 4,5.55,-3
163783,1,31.93, 8,31.08,-5,31.49,11,3902.44, 0,1.52,-1,3992.20,-1
163889,1,31.94,11,31.07,-6,31.48, 8,3903.41,16,3994.15, 2,0.55, 1
163994,1,31.95, 9,31.06,-7,31.53,-4,3905.37,-48,3995.18, 4,2.20,-6
164099,1,31.96,-1,31.05, 4,31.52,-12,3904.39,-32,3995.91,-1,0.43,-3
164203,1,31.94,-1,31.08, 2,31.52,-11,3902.44, 0,1.16, 0,3993.96, 1
164308,1,31.93,20,31.08, 4,31.51,-18,3901.46,32,3994.27, 3,3994.39, 3
164413,1,31.93,-11,31.07, 0,31.52,-1,3905.37,-32,3993.29, 1,3994.39,-1
164518,1,31.93,-12,31.05, 9,31.51, 9,3903.41,16,1.95, 3,3990.85, 0
164622,1,31.94,-14,30.96,-20,31.52, 1,3904.39,-32,10.55,10,3990.43, 0
164727,1,31.94,11,31.01,-14,31.53, 9,3904.39,-32,11.34,-1,3986.40, 0
164831,1,31.99,-6,31.08,-3,31.54,17,3900.49,80,3.54, 0,3993.48, 3
164936,1,0.01,-5,31.00,-16,31.53, 0,3904.39,-16,8.11, 0,3.90, 3
165041,1,0.04,-4,30.98,-14,31.58,16,3903.41, 0,23.54,15,13.48, 2
165146,1,0.15,-6,30.98,-18,31.59, 4,3903.41, 0,8.90, 5,28.23, 8
165250,1,0.21, 6,30.96,20,31.61,16,3901.46,48,13.96,-10,48.29, 3
165355,1,0.19,-12,31.04,-7,31.71, 8,3905.37,-48,20.91,-2,58.23, 0
165460,1,0.15,-34,31.17,76,31.79,29,3902.44,-32,14.63,10,31.71,-18
165565,1,0.41, 5,31.06,13,31.62,19,3902.44,16,45.12,-15,19.15, 7
165669,1,0.43,-3,31.00,-5,31.82,-1,3903.41, 0,1.52,28,2.07,-9
165774,1,0.50,-5,31.02,-11,31.86,-2,3903.41,-32,118.11,52,3976.95,-6
165879,1,0.44,14,31.33,33,31.99,15,3903.41,16,36.83,-80,3954.21, 7
165984,1,0.53,-4,31.16,11,32.00,-10,3902.44,32,20.18, 8,3964.27, 2
166089,1,0.56, 4,31.12,-8,0.05,-6,3904.39,-32,44.45,10,3970.30, 1
166194,1,0.52, 1,31.13,-5,0.20,25,3902.44,16,49.51, 6,3974.94,-8
166298,1,0.45,-14,31.22, 9,0.32,22,3905.37,-48,153.60,27,3975.24,-11
166403,1,0.52,10,31.35,20,0.42,-22,3903.41,-16,84.45,-5,3970.55,-6
166508,1,0.54,-3,31.46,-9,0.44, 1,3904.39,-32,9.39,-55,3976.16, 3
166613,1,0.52, 5,31.40,-10,0.63, 8,3904.39, 0,3994.09,-2,3988.23,-10
166717,1,0.58,-3,31.30,-4,0.40,-9,3904.39,-16,3951.83, 4,3992.74, 7
166822,1,0.50,-15,31.17,-26,0.42, 1,3904.39,-16,3908.17,43,9.33,-4
166927,1,0.55, 6,31.12, 8,0.22, 6,3902.44,16,3949.27,17,9.57,-3
167032,1,0.51, 1,31.14,-19,0.21, 6,3903.41, 0,22.74,44,10.73,-2
167137,1,0.51,-30,31.32, 0,0.37,28,3901.46,32,133.05,-20,13.84,-12
167242,1,0.56, 3,31.32,-4,0.45,17,3901.46,48,3930.55,-6,20.91,-4
167347,1,0.61,11,31.23,-13,0.26,-15,3902.44,32,3929.15,28,13.29,-1
167452,1,0.62,-25,31.19,-16,0.23, 5,3902.44, 0,3948.84,17,25.00,-1
167557,1,0.63,-7,31.20, 0,0.14,-10,3902.44, 0,3966.52,30,7.74,-1
167662,1,0.57, 7,31.21,-1,0.24, 5,3904.39, 0,39.02,21,4.76,-5
167766,1,0.50,35,31.25,61,0.32, 0,3904.39,-48,162.80,-44,3981.71,-18
167871,1,0.63,-6,31.28,-8,0.43,-16,3902.44,16,4.70,56,3983.35, 5
167976,1,0.65,19,31.40,-21,0.39,23,3903.41, 0,20.85,-7,3984.15, 0
168081,1,0.66,-4,31.51, 5,0.44,19,3903.41,16,51.22,-17,3989.09, 1
168186,1,0.64,-15,31.49,-1,0.46,35,3903.41,16,45.43, 2,3992.44, 2
168290,1,0.65, 5,31.50,-6,0.48,-14,3904.39,-16,7.99,17,3993.72, 2
168395,1,0.68,-17,31.66,11,0.47,-13,3902.44,32,3983.72,-21,14.51,16
168500,1,0.51,-2,31.58,11,0.46,-4,3902.44,32,3938.72,-49,40.79,12
168605,1,0.35,-7,31.28,-8,0.50, 0,3904.39,-16,3972.26,-5,40.91,15
168710,1,0.18,-15,31.18,-5,0.46, 9,3903.41,-32,3973.90,-20,28.23,-6
168815,1,0.17,-20,31.26, 9,0.58,-32,3903.41,32,27.99,-20,30.37, 5
168919,1,0.09,-34,31.36, 3,0.66, 0,3904.39, 0,56.34,-5,19.33,-3
169024,1,32.00,-17,31.23,14,0.69, 3,3903.41,-16,76.04,55,4.76,-9
169129,1,31.88,-23,31.26, 1,0.69,-7,3902.44, 0,58.05,35,3.23,-33
169234,1,31.63,-31,31.32, 6,0.45,-21,3902.44,16,3949.63,-6,3968.41,-7
169338,1,31.69,-4,31.33,-6,0.63,-15,3903.41,32,3899.51,-20,3967.74,-10
169443,1,0.00,37,31.17, 2,0.38,-15,3903.41,16,3911.46,-31,3965.30,-1
169548,1,0.27,11,30.88,18,0.13, 0,3905.37,-16,3919.09,60,30.12, 5
169653,1,0.40,21,31.06, 2,0.12,-7,3904.39, 0,29.21,36,13.90,-3
169757,1,0.55,12,31.20,38,0.10,-56,3902.44, 0,75.24,37,5.43, 4
169862,1,0.65, 8,31.56, 8,0.32,10,3902.44,32,39.39,-24,2.32, 7
169967,1,0.70, 8,31.38,10,0.37,12,3904.39,-16,6.65, 9,4.27, 3
170072,1,0.72,-5,31.45, 8,0.36,-13,3902.44,16,33.60, 2,1.40, 5
170177,1,0.73,-6,31.45, 8,0.33,23,3902.44,-16,3994.45,-2,3.90, 6
170282,1,0.72,20,31.50,11,0.37, 4,3903.41, 0,13.90,-20,3996.04,-65530
170387,1,0.70, 4,31.45,27,0.39, 8,3905.37,-32,11.59,-2,3996.04,-65530
170492,1,0.68,-14,31.46,22,0.39,25,3905.37, 0,24.57,-4,4.15, 0
170597,1,0.73,18,31.50,11,0.36,-15,3903.41, 0,6.59, 0,3991.16,-2
170702,1,0.69,10,31.39, 0,0.39,20,3904.39, 0,1.89, 6,1.71,-4
170806,1,0.71,13,31.50,-9,0.36,14,3902.44,32,5.37, 2,3994.45, 2
170911,1,0.69,11,31.42,20,0.36,37,3902.44, 0,0.98,14,3989.88, 4
171015,1,0.71, 3,31.40,-11,0.38,25,3902.44,48,3990.79, 2,5.06, 4
171120,1,0.64, 4,31.41, 3,0.35, 1,3904.39,16,3991.65, 1,0.61,65524
171224,1,0.70, 1,31.40,-1,0.36,31,3903.41, 0,3994.57,-4,0.24, 1
171329,1,0.67, 4,31.41,-5,0.40,10,3905.37,-32,2.07,-2,3992.80,-6
171434,1,0.67,11,31.41, 9,0.37,-27,3903.41,16,5.98, 2,0.30,-5
171539,1,0.69,10,31.40, 1,0.37,-6,3905.37,-48,0.49,-5,3992.50,-2
171644,1,0.68,-12,31.43,11,0.41, 1,3903.41,16,3993.72,-4,0.18,65524
171749,1,0.66,27,31.41,27,0.37,22,3905.37,-48,3995.98,-65534,3990.79, 0
171855,1,0.72,11,31.43,-14,0.35,-9,3903.41,16,3992.32, 1,0.24, 1
171959,1,0.69, 0,31.37,-5,0.38,-15,3902.44,32,3991.59, 3,3.11, 7
172064,1,0.68,12,31.38, 5,0.32,-11,3904.39, 0,3994.76, 6,0.49, 6
172169,1,0.68,-20,31.47, 8,0.37,11,3904.39,-32,4.76,-17,1.83, 5
172273,1,0.70, 1,31.46,12,0.36,-18,3902.44,64,5.18,-9,1.89, 2
172378,1,0.69, 8,31.41,-8,0.33, 1,3902.44, 0,3991.10,-9,3995.12, 7
172483,1,0.56,30,31.55,-1,0.48,-22,3904.39,32,3983.84,10,3988.84,-11
172588,1,0.68,-2,31.51, 9,0.35,14,3902.44,16,12.93,-10,3989.45, 1
172693,1,0.65, 5,31.32,-8,0.34,-11,3904.39,16,3972.74, 2,3985.79,-1
172798,1,0.61,-2,31.30,12,0.31,18,3904.39,-16,3977.26,-12,3993.05, 1
172903,1,0.59,21,31.23,-4,0.24, 7,3903.41,32,3971.65, 1,3987.38,-5
173007,1,0.58, 2,31.25,14,0.22,-13,3905.37,-32,3990.37,-15,3989.63, 4
173112,1,0.58,-1,31.23,-5,0.28,-4,3903.41, 0,47.13,32,3989.94,-2
173216,1,0.63,13,31.35,-18,0.33, 7,3901.46,16,3987.01,-45,3993.23, 2
173321,1,0.55, 7,31.18,26,0.24,21,3904.39, 0,3971.77,12,0.85,11
173426,1,0.58,-9,31.24,-12,0.21,-18,3904.39,-32,3929.02, 3,1.59,-1
173531,1,0.62,-2,31.24,-18,0.04,26,3904.39,-16,3921.77,-18,13.23,-2
173636,1,0.60,26,31.11,19,31.92,35,3904.39,-16,3911.59,64,12.74,-2
173741,1,0.59, 6,31.24,10,31.94,-41,3904.39,-16,3940.55,-34,4.82, 0
173845,1,0.61, 6,31.16,-9,31.82, 0,3903.41,16,3992.07, 0,3995.55,-4
173950,1,0.60,-1,31.20,-2,31.79,16,3905.37, 0,14.63,-22,3992.07, 2
174055,1,0.60,-7,31.12,-5,31.85, 7,3903.41, 0,52.68, 8,3995.67, 3
174160,1,0.63,12,31.20,-6,31.92,-5,3903.41,32,117.87,-7,3994.33,-7
174264,1,0.58, 6,31.22,-1,0.12,18,3903.41,32,79.70,-3,3986.22,-2
174369,1,0.62,-3,31.29,16,0.24,-23,3905.37, 0,64.70, 3,3990.12, 1
174474,1,0.63, 3,31.32,-9,0.31,-20,3903.41, 0,35.85,10,3989.88, 4
174579,1,0.69,-1,31.44,-24,0.34,-11,3905.37,-32,51.10,-9,3989.57,-3
174684,1,0.68,-5,31.44,-10,0.37,20,3905.37,-16,45.55,-12,3993.05, 3
174789,1,0.67,27,31.45, 4,0.47,-13,3905.37,-64,28.60,-12,3994.94, 6
174894,1,0.65, 8,31.50, 5,0.45,-10,3905.37,16,34.76,-7,3995.24, 1
174999,1,0.66,10,31.51,-4,0.48, 0,3905.37,-16,13.90,-10,3994.57, 0
175104,1,0.67,-5,31.52,-2,0.45, 3,3904.39,32,3991.16,-6,3995.73, 4
175209,1,0.67,-14,31.52,-7,0.46,12,3904.39,32,3990.12,-2,1.40, 1
175314,1,0.67,-15,31.44,-6,0.47, 4,3906.34,-32,3983.29, 9,0.55, 5
175419,1,0.66,-1,31.44,17,0.47,-14,3906.34, 0,1.22,11,3995.43, 3
175524,1,0.67, 2,31.48,-4,0.45,-8,3906.34,-32,3986.22,-1,0.37, 1
175629,1,0.67,12,31.48,12,0.42, 3,3904.39,-32,3968.84,-10,0.67, 5
175734,1,0.67,-5,31.43,-2,0.42, 8,3904.39,-16,3971.22, 5,3994.70,-4
175839,1,0.68,-4,31.44,-3,0.39, 8,3904.39,16,3995.37,-10,0.55,-5
175944,1,0.68,-4,31.45,-8,0.40,-7,3903.41,32,13.72,-12,3993.60, 3
176049,1,0.67,-7,31.45,-9,0.42,-2,3905.37, 0,10.37,-13,3995.30, 5
176154,1,0.67,-2,31.43, 7,0.41,11,3903.41, 0,3992.56,-2,1.46,-1
176260,1,0.67,-4,31.42,-3,0.42,-9,3905.37, 0,2.07, 3,3995.18, 2
176364,1,0.68, 4,31.46, 1,0.45, 9,3905.37,-32,35.37,-5,3996.04,-65532
176469,1,0.70,-13,31.49,-4,0.44,13,3903.41,16,43.78,-11,3995.91,-65532
176574,1,0.65,-2,31.57, 8,0.50,-8,3906.34,-32,12.99,-12,3992.13, 1
176679,1,0.66, 0,31.54,29,0.51,-40,3902.44, 0,3980.49,-12,3993.84,10
176783,1,0.67,-21,31.54, 0,0.56,31,3904.39,16,40.00,13,3991.65, 2
176888,1,0.68, 0,31.62, 2,0.55,-11,3904.39,16,48.66,-5,3994.15, 0
176993,1,0.67,-21,31.65, 1,0.58, 4,3905.37, 0,33.54,-10,3.35,-1
177098,1,0.65, 9,31.69,-6,0.59,-8,3905.37,-16,14.15,-5,2.01, 3
177203,1,0.66,-1,31.72,-2,0.63,-16,3903.41,32,4.63, 0,1.28, 1
177307,1,0.64,-7,31.69, 3,0.60,22,3905.37,-16,3975.24,-32,19.33, 9
177412,1,0.68,-8,31.49,-3,0.48,-7,3904.39,32,3684.15,-41,21.95, 9
177517,1,0.47,-18,31.23,24,0.44,10,3904.39, 0,3831.52,47,8.11,-17
177622,1,0.57, 7,31.14,-5,0.12,16,3904.39, 0,111.65,19,3983.41,-6
177726,1,0.59,13,31.31, 8,0.31,-4,3904.39,16,118.54, 8,3984.02, 3
177831,1,0.61,12,31.36,-3,0.45, 0,3904.39,-16,130.98, 6,3992.99,-4
177936,1,0.58,-8,31.47,14,0.54,11,3905.37,-32,66.89,16,3986.77,-4
178041,1,0.59,10,31.56,35,0.56,34,3905.37,32,53.17,-15,3992.68, 5
178145,1,0.61, 0,31.62,-2,0.58,23,3905.37, 0,42.20,-13,3993.41,10
178250,1,0.61,-10,31.62,10,0.57,38,3903.41,32,3967.56,-45,14.09, 2
178354,1,0.53,-6,31.52,44,0.65,-22,3904.39, 0,3920.06,-4,1.04,-10
178459,1,0.59,-17,31.36,-11,0.45, 4,3903.41,16,4.63,41,2.26, 9
178564,1,0.60,-4,31.44,-8,0.50,14,3906.34, 0,5.67,-8,3987.32,-1
178669,1,0.61,-8,31.42,-3,0.44, 7,3905.37,16,3986.04,-9,3985.85, 0
178774,1,0.64, 7,31.40,10,0.45,-15,3904.39, 0,13.17, 3,3990.06, 3
178879,1,0.61, 5,31.45, 8,0.50,-8,3906.34,-32,50.85, 0,4.09,-3
178984,1,0.62, 8,31.52,-10,0.46,-5,3904.39, 0,9.21,-11,3.72, 4
179089,1,0.62, 9,31.46,-9,0.49, 1,3904.39,32,3995.85,-65526,3991.34, 2
179194,1,0.59, 6,31.50,15,0.54,15,3904.39, 0,2.32,-13,3994.51,-2
179299,1,0.63, 7,31.45, 3,0.50,-15,3904.39,32,3994.39, 5,3994.94, 4
179404,1,0.62,-4,31.46,-10,0.50, 4,3904.39,16,0.06,65529,0.49,-1
179509,1,0.62, 0,31.47,-8,0.50,-10,3904.39,16,3993.54,-4,2.74, 2
179614,1,0.61, 8,31.47,12,0.50, 9,3907.32,-64,3979.63,-20,1.83, 3
179719,1,0.61,-17,31.48,10,0.49,-13,3905.37, 0,3991.16,-11,3995.18,-3
179824,1,0.61,-9,31.44,10,0.48,-9,3905.37,-32,3.17,-1,1.89,-2
179929,1,0.62,-7,31.43,-9,0.48,-10,3903.41,48,0.49, 2,2.50,-2
180034,1,0.61,-7,31.40,-9,0.49,-15,3907.32,-16,3982.74,15,3994.02,-2
180138,1,0.62, 4,31.43,-3,0.45,20,3904.39,32,3976.04,-5,3993.60,-2
180243,1,0.61,-11,31.42, 4,0.45,-7,3904.39,32,3974.76, 0,3995.61,-4
180348,1,0.61, 5,31.35,-4,0.44,-12,3904.39, 0,3995.18, 6,3993.29, 1
180453,1,0.63,-2,31.38,-12,0.43,31,3904.39, 0,3994.94,10,3994.94, 2
180558,1,0.60, 5,31.39, 1,0.40,18,3904.39,16,3977.44,-1,0.24, 0
180663,1,0.62,-2,31.39,20,0.41,16,3905.37, 0,3993.84,-9,3992.99, 4
180768,1,0.61,-4,31.39,-5,0.42, 6,3905.37, 0,3992.99,-1,3995.49,-1
180872,1,0.61,25,31.38, 1,0.40,12,3903.41,48,2.44,-4,0.79,-1
180977,1,0.61,-17,31.41, 3,0.41,-20,3906.34,-32,8.17,-2,0.37, 3
181082,1,0.62,-12,31.37,-11,0.47, 1,3904.39,16,3993.41,-1,0.67, 3
181192,1,0.60,25,31.34,10,0.42,13,3906.34,-32,3993.05, 2,3991.16, 5
181297,1,0.59, 4,31.39,26,0.40,-10,3906.34,-16,3987.93,10,3993.41, 3
181402,1,0.60,-13,31.21,66,0.38,-39,3905.37, 0,3955.43,45,8.78,-6
181507,1,0.65,-12,31.22,-1,0.37,-2,3905.37,16,3955.67,24,3.60, 2
181611,1,0.58, 1,31.20,14,0.27,-3,3907.32,-16,3986.34,13,4.88, 0
181716,1,0.57, 7,31.29,-4,0.24,26,3905.37,-16,3977.87,-12,2.80, 1
181821,1,0.57,-2,31.19,-2,0.25,-10,3903.41,80,3983.41, 9,4.39, 5
181926,1,0.56,-9,31.24, 3,0.24,-3,3907.32,-16,3994.33,-14,1.28, 3
182031,1,0.55,23,31.22,-4,0.23,-11,3905.37,-16,3990.49,-15,4.63,-3
182136,1,0.56,-6,31.22, 5,0.21, 1,3906.34, 0,1.28,-8,2.68, 2
182240,1,0.55, 6,31.19, 7,0.25,-29,3906.34,-16,0.73, 7,1.04, 1
182345,1,0.54,-8,31.21, 2,0.24,12,3905.37,32,3994.70, 5,3995.49, 0
182450,1,0.54,-10,31.21,-1,0.22,-7,3905.37, 0,3975.06,-9,3995.98, 0
182555,1,0.51,27,31.05,-38,0.23,28,3906.34, 0,3949.27,77,3994.57,11
182660,1,0.59, 7,31.23,-23,0.17,-7,3904.39, 0,3979.27,14,3988.29, 5
182765,1,0.56,-2,31.16,-8,0.13,11,3906.34,-32,6.04, 0,3.11, 1
182870,1,0.54, 9,31.17, 9,0.18, 6,3906.34,-48,2.93, 6,3993.78, 3
182975,1,0.57,-6,31.19,-9,0.15,-23,3905.37, 0,3985.85,-12,3991.10,-1
183080,1,0.58, 5,31.21,10,0.11,14,3905.37,16,3953.90,-19,3995.43, 4
183185,1,0.58, 6,31.17,-24,0.04, 7,3905.37,32,3948.17,-4,1.52,-4
183289,1,0.58, 9,31.19, 3,32.00,-5,3905.37,-16,3973.66,-6,2.74, 1
183394,1,0.59, 7,31.18,11,31.98,-7,3904.39,32,3986.83,-10,3995.37, 2
183499,1,0.60,-3,31.18,-9,31.97,14,3906.34,-32,3992.68,-2,3995.91, 2
183604,1,0.60,-18,31.18, 1,31.97,33,3906.34,-16,3989.88, 0,0.06, 2
183709,1,0.58, 9,31.17,12,32.00,-5,3903.41,64,3985.73, 1,1.04, 1
183814,1,0.57,-14,31.15,10,0.01,65510,3905.37,32,3994.88,-2,0.49,-5
183918,1,0.60, 9,31.15,-5,31.98,-2,3905.37,-32,3994.02, 7,4.39, 7
184023,1,0.57, 7,31.16, 8,31.96,29,3905.37,16,2.93, 3,4.27,-7
184128,1,0.56,-23,31.18,-10,0.00, 6,3906.34,-32,0.61,-6,2.87,-6
184233,1,0.56,-3,31.19,-3,31.99,-8,3906.34,-32,8.17,-1,3993.17,-2
184338,1,0.56,-6,31.17,-6,0.02,-18,3906.34,-16,2.07, 1,3994.02, 2
184443,1,0.58, 4,31.17, 4,0.01,-12,3908.29,-48,8.17,-5,3995.85, 0
184548,1,0.55,19,31.16,-13,0.04,-3,3907.32,-32,3995.85, 3,3993.66, 3
184653,1,0.56,-5,31.15, 7,0.05,-4,3905.37,48,2.74, 7,3994.45,-3
184758,1,0.57,-16,31.18,10,0.05,-6,3907.32,16,3993.78,-6,3995.49, 3
184864,1,0.58,-9,31.17,-3,0.03,14,3906.34,-32,3995.43, 0,3995.12, 0
184969,1,0.56,-12,31.15,-9,0.06, 1,3908.29,-48,3996.04,-65527,3994.70, 1
185074,1,0.56,-2,31.17,-1,0.07,22,3905.37,64,1.95, 3,3994.57, 1
185179,1,0.56,-16,31.21, 0,0.06, 6,3907.32, 0,3.54,-3,3983.90,-3
185284,1,0.59,13,31.22,-3,0.01,15,3904.39,32,3990.73,-26,3981.40,12
185390,1,0.56,-7,31.14, 1,0.05,19,3906.34,32,4.39, 2,3989.82,-8
185495,1,0.54,22,31.14,-7,0.02, 7,3906.34, 0,3976.40,-4,3988.54,-3
185600,1,0.55,-13,31.14,12,31.99, 1,3904.39,16,3973.05,-4,3986.10, 4
185704,1,0.59,-12,31.17, 2,31.92,15,3906.34,-16,3959.63,-8,3990.73, 1
185809,1,0.56,-4,31.15, 0,31.89, 0,3905.37,32,3965.67,-7,2.56, 1
185914,1,0.56,14,31.13,-9,31.91,13,3905.37,32,3984.63, 4,1.28,-1
186019,1,0.56,20,31.14,-2,31.90,-20,3905.37,32,3988.90, 3,3994.51, 1
186124,1,0.55, 3,31.14,-19,31.88,23,3907.32,-32,3988.84, 3,3994.76,-1
186229,1,0.56,-5,31.10, 1,31.90,-2,3908.29,-16,3991.46, 7,3993.72, 6
186333,1,0.54,-6,31.14,16,31.87, 7,3906.34,16,3993.84, 1,3988.60,-1
186438,1,0.57,-2,31.16,-2,31.87, 8,3904.39,16,3990.55,-1,3995.85, 2
186543,1,0.54,-19,31.09,10,31.86, 7,3904.39,32,3991.77, 9,3995.49,-6
186648,1,0.54,-2,31.16,-12,31.86,-4,3908.29, 0,3994.76,-2,3994.88,-7
186752,1,0.51, 4,31.14,13,31.90,-28,3906.34,32,3.54, 3,3984.51,-4
186857,1,0.58,17,31.11, 7,31.80,-35,3908.29,-64,8.60,16,3984.27, 3
186962,1,0.63, 4,31.17,13,31.79,-23,3908.29,-64,67.20,-33,3.17, 5
187067,1,0.51,-21,31.13,-19,31.93,-24,3908.29,-32,38.78,-6,0.18,12
187172,1,0.52, 2,31.21,-43,0.09,-7,3908.29,-32,3985.73,-6,3985.91,-12
187277,1,0.55, 3,31.07, 2,0.03,19,3906.34,-16,3990.06,26,3982.32, 1
187382,1,0.54,-6,31.12,-2,0.06, 7,3905.37,32,10.91, 7,3983.48,-2
